key1.keys,key1.rt,key2.keys,key2.rt,key2_2.keys,key2_2.rt,key2_3.keys,key2_3.rt,key3.keys,key3.rt,key4.keys,key4.rt,respP.keys,respP.corr,respP.rt,Practice.thisRepN,Practice.thisTrialN,Practice.thisN,Practice.thisIndex,Practice.ran,ssAmount,llAmount,llDelay,session,participant,date,expName,psychopyVersion,OS,frameRate,key5.keys,key5.rt,respT.keys,respT.corr,respT.rt,trials.thisRepN,trials.thisTrialN,trials.thisN,trials.thisIndex,trials.ran,ss_Amt,ss_Delay,ll_Amt,ll_Delay
space,0.544,space,0.026,space,0.808,space,0.035,left,0.27,space,0.354,right,0,0.145,0,0,0,1,1,25000,35000,150,002,impaciente,2022-07-08_16h48.54.684,tareaTDv3,2020.2.5,Win32,60,,,,,,,,,,,,,,
,,,,,,,,,,,,right,0,0.009,0,1,1,0,1,10000,109000,9,002,impaciente,2022-07-08_16h48.54.684,tareaTDv3,2020.2.5,Win32,60,,,,,,,,,,,,,,
,,,,,,,,,,,,right,0,0.956,0,2,2,2,1,10000,19000,89,002,impaciente,2022-07-08_16h48.54.684,tareaTDv3,2020.2.5,Win32,60,,,,,,,,,,,,,,
,,,,,,,,,,,,,,,,,,,,,,,002,impaciente,2022-07-08_16h48.54.684,tareaTDv3,2020.2.5,Win32,60,g,7.101,left,0,1.039,0,0,0,53,1,5000,0,104000,90
,,,,,,,,,,,,,,,,,,,,,,,002,impaciente,2022-07-08_16h48.54.684,tareaTDv3,2020.2.5,Win32,60,,,left,0,0.655,0,1,1,27,1,10000,0,61000,150
,,,,,,,,,,,,,,,,,,,,,,,002,impaciente,2022-07-08_16h48.54.684,tareaTDv3,2020.2.5,Win32,60,,,left,0,0.604,0,2,2,46,1,5000,0,36000,61
,,,,,,,,,,,,,,,,,,,,,,,002,impaciente,2022-07-08_16h48.54.684,tareaTDv3,2020.2.5,Win32,60,,,left,0,0.28,0,3,3,16,1,10000,0,39000,59
,,,,,,,,,,,,,,,,,,,,,,,002,impaciente,2022-07-08_16h48.54.684,tareaTDv3,2020.2.5,Win32,60,,,right,0,0.233,0,4,4,55,1,5000,0,14000,149
,,,,,,,,,,,,,,,,,,,,,,,002,impaciente,2022-07-08_16h48.54.684,tareaTDv3,2020.2.5,Win32,60,,,right,0,0.104,0,5,5,40,1,5000,0,14000,31
,,,,,,,,,,,,,,,,,,,,,,,002,impaciente,2022-07-08_16h48.54.684,tareaTDv3,2020.2.5,Win32,60,,,left,0,0.088,0,6,6,74,1,25000,0,150000,29
,,,,,,,,,,,,,,,,,,,,,,,002,impaciente,2022-07-08_16h48.54.684,tareaTDv3,2020.2.5,Win32,60,,,right,0,0.011,0,7,7,51,1,5000,0,35000,89
,,,,,,,,,,,,,,,,,,,,,,,002,impaciente,2022-07-08_16h48.54.684,tareaTDv3,2020.2.5,Win32,60,,,right,0,1.316,0,8,8,78,1,25000,0,125000,59
,,,,,,,,,,,,,,,,,,,,,,,002,impaciente,2022-07-08_16h48.54.684,tareaTDv3,2020.2.5,Win32,60,,,left,0,0.378,0,9,9,44,1,5000,0,150000,30
,,,,,,,,,,,,,,,,,,,,,,,002,impaciente,2022-07-08_16h48.54.684,tareaTDv3,2020.2.5,Win32,60,,,left,0,0.088,0,10,10,83,1,25000,0,125000,89
,,,,,,,,,,,,,,,,,,,,,,,002,impaciente,2022-07-08_16h48.54.684,tareaTDv3,2020.2.5,Win32,60,,,left,0,0.078,0,11,11,11,1,10000,0,39000,29
,,,,,,,,,,,,,,,,,,,,,,,002,impaciente,2022-07-08_16h48.54.684,tareaTDv3,2020.2.5,Win32,60,,,left,0,0.01,0,12,12,81,1,25000,0,55000,90
,,,,,,,,,,,,,,,,,,,,,,,002,impaciente,2022-07-08_16h48.54.684,tareaTDv3,2020.2.5,Win32,60,,,right,0,0.606,0,13,13,10,1,10000,0,21000,31
,,,,,,,,,,,,,,,,,,,,,,,002,impaciente,2022-07-08_16h48.54.684,tareaTDv3,2020.2.5,Win32,60,,,right,0,0.374,0,14,14,68,1,25000,0,125000,9
,,,,,,,,,,,,,,,,,,,,,,,002,impaciente,2022-07-08_16h48.54.684,tareaTDv3,2020.2.5,Win32,60,,,left,0,0.578,0,15,15,88,1,25000,0,125000,149
,,,,,,,,,,,,,,,,,,,,,,,002,impaciente,2022-07-08_16h48.54.684,tareaTDv3,2020.2.5,Win32,60,,,right,0,0.17,0,16,16,3,1,10000,0,109000,5
,,,,,,,,,,,,,,,,,,,,,,,002,impaciente,2022-07-08_16h48.54.684,tareaTDv3,2020.2.5,Win32,60,,,right,0,0.71,0,17,17,59,1,5000,0,151000,150
,,,,,,,,,,,,,,,,,,,,,,,002,impaciente,2022-07-08_16h48.54.684,tareaTDv3,2020.2.5,Win32,60,,,right,0,0.239,0,18,18,4,1,10000,0,150000,5
,,,,,,,,,,,,,,,,,,,,,,,002,impaciente,2022-07-08_16h48.54.684,tareaTDv3,2020.2.5,Win32,60,,,left,0,0.704,0,19,19,19,1,10000,0,149000,61
,,,,,,,,,,,,,,,,,,,,,,,002,impaciente,2022-07-08_16h48.54.684,tareaTDv3,2020.2.5,Win32,60,,,left,0,0.147,0,20,20,6,1,10000,0,40000,10
,,,,,,,,,,,,,,,,,,,,,,,002,impaciente,2022-07-08_16h48.54.684,tareaTDv3,2020.2.5,Win32,60,,,right,0,0.144,0,21,21,36,1,5000,0,36000,9
,,,,,,,,,,,,,,,,,,,,,,,002,impaciente,2022-07-08_16h48.54.684,tareaTDv3,2020.2.5,Win32,60,,,left,0,0.361,0,22,22,85,1,25000,0,35000,150
,,,,,,,,,,,,,,,,,,,,,,,002,impaciente,2022-07-08_16h48.54.684,tareaTDv3,2020.2.5,Win32,60,,,right,0,0.046,0,23,23,28,1,10000,0,109000,149
,,,,,,,,,,,,,,,,,,,,,,,002,impaciente,2022-07-08_16h48.54.684,tareaTDv3,2020.2.5,Win32,60,,,right,0,0.293,0,24,24,39,1,5000,0,149000,10
,,,,,,,,,,,,,,,,,,,,,,,002,impaciente,2022-07-08_16h48.54.684,tareaTDv3,2020.2.5,Win32,60,,,left,0,0.078,0,25,25,58,1,5000,0,106000,152
,,,,,,,,,,,,,,,,,,,,,,,002,impaciente,2022-07-08_16h48.54.684,tareaTDv3,2020.2.5,Win32,60,,,left,0,0.144,0,26,26,2,1,10000,0,61000,4
,,,,,,,,,,,,,,,,,,,,,,,002,impaciente,2022-07-08_16h48.54.684,tareaTDv3,2020.2.5,Win32,60,,,left,0,0.674,0,27,27,77,1,25000,0,75000,59
,,,,,,,,,,,,,,,,,,,,,,,002,impaciente,2022-07-08_16h48.54.684,tareaTDv3,2020.2.5,Win32,60,,,left,0,0.488,0,28,28,69,1,25000,0,150000,9
,,,,,,,,,,,,,,,,,,,,,,,002,impaciente,2022-07-08_16h48.54.684,tareaTDv3,2020.2.5,Win32,60,,,left,0,0.256,0,29,29,43,1,5000,0,106000,29
,,,,,,,,,,,,,,,,,,,,,,,002,impaciente,2022-07-08_16h48.54.684,tareaTDv3,2020.2.5,Win32,60,,,left,0,0.414,0,30,30,34,1,5000,0,151000,4
,,,,,,,,,,,,,,,,,,,,,,,002,impaciente,2022-07-08_16h48.54.684,tareaTDv3,2020.2.5,Win32,60,,,left,0,0.63,0,31,31,87,1,25000,0,75000,151
,,,,,,,,,,,,,,,,,,,,,,,002,impaciente,2022-07-08_16h48.54.684,tareaTDv3,2020.2.5,Win32,60,,,left,0,0.584,0,32,32,9,1,10000,0,151000,11
,,,,,,,,,,,,,,,,,,,,,,,002,impaciente,2022-07-08_16h48.54.684,tareaTDv3,2020.2.5,Win32,60,,,right,0,0.937,0,33,33,33,1,5000,0,104000,5
,,,,,,,,,,,,,,,,,,,,,,,002,impaciente,2022-07-08_16h48.54.684,tareaTDv3,2020.2.5,Win32,60,,,left,0,0.197,0,34,34,60,1,25000,0,35000,5
,,,,,,,,,,,,,,,,,,,,,,,002,impaciente,2022-07-08_16h48.54.684,tareaTDv3,2020.2.5,Win32,60,,,right,0,0.084,0,35,35,61,1,25000,0,55000,6
,,,,,,,,,,,,,,,,,,,,,,,002,impaciente,2022-07-08_16h48.54.684,tareaTDv3,2020.2.5,Win32,60,,,right,0,0.062,0,36,36,35,1,5000,0,15000,11
,,,,,,,,,,,,,,,,,,,,,,,002,impaciente,2022-07-08_16h48.54.684,tareaTDv3,2020.2.5,Win32,60,,,left,0,0.726,0,37,37,73,1,25000,0,125000,31
,,,,,,,,,,,,,,,,,,,,,,,002,impaciente,2022-07-08_16h48.54.684,tareaTDv3,2020.2.5,Win32,60,,,left,0,0.291,0,38,38,56,1,5000,0,35000,150
,,,,,,,,,,,,,,,,,,,,,,,002,impaciente,2022-07-08_16h48.54.684,tareaTDv3,2020.2.5,Win32,60,,,left,0,0.445,0,39,39,5,1,10000,0,19000,11
,,,,,,,,,,,,,,,,,,,,,,,002,impaciente,2022-07-08_16h48.54.684,tareaTDv3,2020.2.5,Win32,60,,,right,0,0.154,0,40,40,62,1,25000,0,75000,5
,,,,,,,,,,,,,,,,,,,,,,,002,impaciente,2022-07-08_16h48.54.684,tareaTDv3,2020.2.5,Win32,60,,,right,0,0.411,0,41,41,25,1,10000,0,10000,150
,,,,,,,,,,,,,,,,,,,,,,,002,impaciente,2022-07-08_16h48.54.684,tareaTDv3,2020.2.5,Win32,60,,,left,0,0.262,0,42,42,67,1,25000,0,75000,10
,,,,,,,,,,,,,,,,,,,,,,,002,impaciente,2022-07-08_16h48.54.684,tareaTDv3,2020.2.5,Win32,60,,,right,0,0.026,0,43,43,48,1,5000,0,105000,60
,,,,,,,,,,,,,,,,,,,,,,,002,impaciente,2022-07-08_16h48.54.684,tareaTDv3,2020.2.5,Win32,60,,,left,0,0.156,0,44,44,32,1,5000,0,54000,5
,,,,,,,,,,,,,,,,,,,,,,,002,impaciente,2022-07-08_16h48.54.684,tareaTDv3,2020.2.5,Win32,60,,,left,0,0.043,0,45,45,64,1,25000,0,150000,4
,,,,,,,,,,,,,,,,,,,,,,,002,impaciente,2022-07-08_16h48.54.684,tareaTDv3,2020.2.5,Win32,60,,,left,0,0.401,0,46,46,42,1,5000,0,56000,29
,,,,,,,,,,,,,,,,,,,,,,,002,impaciente,2022-07-08_16h48.54.684,tareaTDv3,2020.2.5,Win32,60,,,right,0,0.195,0,47,47,26,1,10000,0,39000,150
,,,,,,,,,,,,,,,,,,,,,,,002,impaciente,2022-07-08_16h48.54.684,tareaTDv3,2020.2.5,Win32,60,,,left,0,0.604,0,48,48,63,1,25000,0,125000,4
,,,,,,,,,,,,,,,,,,,,,,,002,impaciente,2022-07-08_16h48.54.684,tareaTDv3,2020.2.5,Win32,60,,,left,0,0.309,0,49,49,65,1,25000,0,35000,11
,,,,,,,,,,,,,,,,,,,,,,,002,impaciente,2022-07-08_16h48.54.684,tareaTDv3,2020.2.5,Win32,60,,,left,0,0.331,0,50,50,29,1,10000,0,151000,151
,,,,,,,,,,,,,,,,,,,,,,,002,impaciente,2022-07-08_16h48.54.684,tareaTDv3,2020.2.5,Win32,60,,,left,0,0.435,0,51,51,37,1,5000,0,56000,9
,,,,,,,,,,,,,,,,,,,,,,,002,impaciente,2022-07-08_16h48.54.684,tareaTDv3,2020.2.5,Win32,60,,,left,0,0.325,0,52,52,72,1,25000,0,75000,31
,,,,,,,,,,,,,,,,,,,,,,,002,impaciente,2022-07-08_16h48.54.684,tareaTDv3,2020.2.5,Win32,60,,,left,0,0.386,0,53,53,31,1,5000,0,35000,6
,,,,,,,,,,,,,,,,,,,,,,,002,impaciente,2022-07-08_16h48.54.684,tareaTDv3,2020.2.5,Win32,60,,,left,0,0.194,0,54,54,70,1,25000,0,35000,30
,,,,,,,,,,,,,,,,,,,,,,,002,impaciente,2022-07-08_16h48.54.684,tareaTDv3,2020.2.5,Win32,60,,,left,0,0.043,0,55,55,14,1,10000,0,150000,30
,,,,,,,,,,,,,,,,,,,,,,,002,impaciente,2022-07-08_16h48.54.684,tareaTDv3,2020.2.5,Win32,60,,,right,0,0.226,0,56,56,15,1,10000,0,20000,59
,,,,,,,,,,,,,,,,,,,,,,,002,impaciente,2022-07-08_16h48.54.684,tareaTDv3,2020.2.5,Win32,60,,,right,0,0.285,0,57,57,79,1,25000,0,150000,61
,,,,,,,,,,,,,,,,,,,,,,,002,impaciente,2022-07-08_16h48.54.684,tareaTDv3,2020.2.5,Win32,60,,,left,0,0.141,0,58,58,1,1,10000,0,39000,6
,,,,,,,,,,,,,,,,,,,,,,,002,impaciente,2022-07-08_16h48.54.684,tareaTDv3,2020.2.5,Win32,60,,,right,0,0.7,0,59,59,82,1,25000,0,75000,90
,,,,,,,,,,,,,,,,,,,,,,,002,impaciente,2022-07-08_16h48.54.684,tareaTDv3,2020.2.5,Win32,60,,,left,0,0.254,0,60,60,57,1,5000,0,55000,151
,,,,,,,,,,,,,,,,,,,,,,,002,impaciente,2022-07-08_16h48.54.684,tareaTDv3,2020.2.5,Win32,60,,,left,0,0.04,0,61,61,89,1,25000,0,150000,150
,,,,,,,,,,,,,,,,,,,,,,,002,impaciente,2022-07-08_16h48.54.684,tareaTDv3,2020.2.5,Win32,60,,,left,0,0.079,0,62,62,21,1,10000,0,40000,91
,,,,,,,,,,,,,,,,,,,,,,,002,impaciente,2022-07-08_16h48.54.684,tareaTDv3,2020.2.5,Win32,60,,,left,0,0.098,0,63,63,50,1,5000,0,15000,91
,,,,,,,,,,,,,,,,,,,,,,,002,impaciente,2022-07-08_16h48.54.684,tareaTDv3,2020.2.5,Win32,60,,,left,0,0.339,0,64,64,45,1,5000,0,15000,61
,,,,,,,,,,,,,,,,,,,,,,,002,impaciente,2022-07-08_16h48.54.684,tareaTDv3,2020.2.5,Win32,60,,,right,0,0.279,0,65,65,52,1,5000,0,56000,89
,,,,,,,,,,,,,,,,,,,,,,,002,impaciente,2022-07-08_16h48.54.684,tareaTDv3,2020.2.5,Win32,60,,,left,0,0.092,0,66,66,75,1,25000,0,35000,60
,,,,,,,,,,,,,,,,,,,,,,,002,impaciente,2022-07-08_16h48.54.684,tareaTDv3,2020.2.5,Win32,60,,,right,0,0.061,0,67,67,24,1,10000,0,149000,89
,,,,,,,,,,,,,,,,,,,,,,,002,impaciente,2022-07-08_16h48.54.684,tareaTDv3,2020.2.5,Win32,60,,,left,0,0.504,0,68,68,86,1,25000,0,55000,151
,,,,,,,,,,,,,,,,,,,,,,,002,impaciente,2022-07-08_16h48.54.684,tareaTDv3,2020.2.5,Win32,60,,,left,0,0.443,0,69,69,49,1,5000,0,149000,59
,,,,,,,,,,,,,,,,,,,,,,,002,impaciente,2022-07-08_16h48.54.684,tareaTDv3,2020.2.5,Win32,60,,,right,0,0.27,0,70,70,54,1,5000,0,150000,90
,,,,,,,,,,,,,,,,,,,,,,,002,impaciente,2022-07-08_16h48.54.684,tareaTDv3,2020.2.5,Win32,60,,,right,0,0.289,0,71,71,71,1,25000,0,55000,30
,,,,,,,,,,,,,,,,,,,,,,,002,impaciente,2022-07-08_16h48.54.684,tareaTDv3,2020.2.5,Win32,60,,,right,0,0.143,0,72,72,17,1,10000,0,60000,60
,,,,,,,,,,,,,,,,,,,,,,,002,impaciente,2022-07-08_16h48.54.684,tareaTDv3,2020.2.5,Win32,60,,,right,0,0.409,0,73,73,20,1,10000,0,20000,90
,,,,,,,,,,,,,,,,,,,,,,,002,impaciente,2022-07-08_16h48.54.684,tareaTDv3,2020.2.5,Win32,60,,,right,0,0.074,0,74,74,41,1,5000,0,35000,31
,,,,,,,,,,,,,,,,,,,,,,,002,impaciente,2022-07-08_16h48.54.684,tareaTDv3,2020.2.5,Win32,60,,,left,0,0.389,0,75,75,13,1,10000,0,111000,30
,,,,,,,,,,,,,,,,,,,,,,,002,impaciente,2022-07-08_16h48.54.684,tareaTDv3,2020.2.5,Win32,60,,,left,0,0.09,0,76,76,0,1,10000,0,20000,5
,,,,,,,,,,,,,,,,,,,,,,,002,impaciente,2022-07-08_16h48.54.684,tareaTDv3,2020.2.5,Win32,60,,,right,0,0.173,0,77,77,7,1,10000,0,59000,9
,,,,,,,,,,,,,,,,,,,,,,,002,impaciente,2022-07-08_16h48.54.684,tareaTDv3,2020.2.5,Win32,60,,,left,0,0.385,0,78,78,80,1,25000,0,35000,90
,,,,,,,,,,,,,,,,,,,,,,,002,impaciente,2022-07-08_16h48.54.684,tareaTDv3,2020.2.5,Win32,60,,,left,0,0.657,0,79,79,22,1,10000,0,61000,89
,,,,,,,,,,,,,,,,,,,,,,,002,impaciente,2022-07-08_16h48.54.684,tareaTDv3,2020.2.5,Win32,60,,,left,0,0.91,0,80,80,47,1,5000,0,56000,60
,,,,,,,,,,,,,,,,,,,,,,,002,impaciente,2022-07-08_16h48.54.684,tareaTDv3,2020.2.5,Win32,60,,,right,0,0.238,0,81,81,38,1,5000,0,104000,10
,,,,,,,,,,,,,,,,,,,,,,,002,impaciente,2022-07-08_16h48.54.684,tareaTDv3,2020.2.5,Win32,60,,,right,0,0.087,0,82,82,30,1,5000,0,16000,4
,,,,,,,,,,,,,,,,,,,,,,,002,impaciente,2022-07-08_16h48.54.684,tareaTDv3,2020.2.5,Win32,60,,,right,0,0.362,0,83,83,18,1,10000,0,110000,60
,,,,,,,,,,,,,,,,,,,,,,,002,impaciente,2022-07-08_16h48.54.684,tareaTDv3,2020.2.5,Win32,60,,,right,0,0.087,0,84,84,8,1,10000,0,111000,10
,,,,,,,,,,,,,,,,,,,,,,,002,impaciente,2022-07-08_16h48.54.684,tareaTDv3,2020.2.5,Win32,60,,,left,0,0.111,0,85,85,66,1,25000,0,55000,11
,,,,,,,,,,,,,,,,,,,,,,,002,impaciente,2022-07-08_16h48.54.684,tareaTDv3,2020.2.5,Win32,60,,,right,0,0.089,0,86,86,84,1,25000,0,150000,89
,,,,,,,,,,,,,,,,,,,,,,,002,impaciente,2022-07-08_16h48.54.684,tareaTDv3,2020.2.5,Win32,60,,,right,0,0.039,0,87,87,12,1,10000,0,60000,29
,,,,,,,,,,,,,,,,,,,,,,,002,impaciente,2022-07-08_16h48.54.684,tareaTDv3,2020.2.5,Win32,60,,,left,0,0.036,0,88,88,23,1,10000,0,110000,90
,,,,,,,,,,,,,,,,,,,,,,,002,impaciente,2022-07-08_16h48.54.684,tareaTDv3,2020.2.5,Win32,60,,,left,0,0.078,0,89,89,76,1,25000,0,55000,60
