key1.keys,key1.rt,key2.keys,key2.rt,key2_2.keys,key2_2.rt,key2_3.keys,key2_3.rt,key3.keys,key3.rt,key4.keys,key4.rt,respP.keys,respP.corr,respP.rt,Practice.thisRepN,Practice.thisTrialN,Practice.thisN,Practice.thisIndex,Practice.ran,ssAmount,llAmount,llDelay,session,participant,date,expName,psychopyVersion,OS,frameRate,key5.keys,key5.rt,respT.keys,respT.corr,respT.rt,trials.thisRepN,trials.thisTrialN,trials.thisN,trials.thisIndex,trials.ran,ss_Amt,ss_Delay,ll_Amt,ll_Delay
space,5.337,space,0.428,space,0.328,space,1.209,left,0.651,space,2.383,left,1,0.053,0,0,0,0,1,10000,109000,9,2,salon,2022-07-08_10h29.12.042,tareaTDv3,2020.2.5,Win32,60,,,,,,,,,,,,,,
,,,,,,,,,,,,right,1,0.104,0,1,1,1,1,25000,35000,150,2,salon,2022-07-08_10h29.12.042,tareaTDv3,2020.2.5,Win32,60,,,,,,,,,,,,,,
,,,,,,,,,,,,left,1,0.042,0,2,2,2,1,10000,19000,89,2,salon,2022-07-08_10h29.12.042,tareaTDv3,2020.2.5,Win32,60,,,,,,,,,,,,,,
,,,,,,,,,,,,,,,,,,,,,,,2,salon,2022-07-08_10h29.12.042,tareaTDv3,2020.2.5,Win32,60,g,1.626,right,1,1.233,0,0,0,35,1,5000,0,15000,11
,,,,,,,,,,,,,,,,,,,,,,,2,salon,2022-07-08_10h29.12.042,tareaTDv3,2020.2.5,Win32,60,,,left,1,0.092,0,1,1,31,1,5000,0,35000,6
,,,,,,,,,,,,,,,,,,,,,,,2,salon,2022-07-08_10h29.12.042,tareaTDv3,2020.2.5,Win32,60,,,right,1,0.403,0,2,2,88,1,25000,0,125000,149
,,,,,,,,,,,,,,,,,,,,,,,2,salon,2022-07-08_10h29.12.042,tareaTDv3,2020.2.5,Win32,60,,,left,1,0.837,0,3,3,76,1,25000,0,55000,60
,,,,,,,,,,,,,,,,,,,,,,,2,salon,2022-07-08_10h29.12.042,tareaTDv3,2020.2.5,Win32,60,,,right,1,0.201,0,4,4,19,1,10000,0,149000,61
,,,,,,,,,,,,,,,,,,,,,,,2,salon,2022-07-08_10h29.12.042,tareaTDv3,2020.2.5,Win32,60,,,right,1,0.347,0,5,5,22,1,10000,0,61000,89
,,,,,,,,,,,,,,,,,,,,,,,2,salon,2022-07-08_10h29.12.042,tareaTDv3,2020.2.5,Win32,60,,,right,1,1.226,0,6,6,55,1,5000,0,14000,149
,,,,,,,,,,,,,,,,,,,,,,,2,salon,2022-07-08_10h29.12.042,tareaTDv3,2020.2.5,Win32,60,,,left,1,0.329,0,7,7,50,1,5000,0,15000,91
,,,,,,,,,,,,,,,,,,,,,,,2,salon,2022-07-08_10h29.12.042,tareaTDv3,2020.2.5,Win32,60,,,left,1,0.164,0,8,8,28,1,10000,0,109000,149
,,,,,,,,,,,,,,,,,,,,,,,2,salon,2022-07-08_10h29.12.042,tareaTDv3,2020.2.5,Win32,60,,,left,1,0.075,0,9,9,16,1,10000,0,39000,59
,,,,,,,,,,,,,,,,,,,,,,,2,salon,2022-07-08_10h29.12.042,tareaTDv3,2020.2.5,Win32,60,,,left,1,0.096,0,10,10,5,1,10000,0,19000,11
,,,,,,,,,,,,,,,,,,,,,,,2,salon,2022-07-08_10h29.12.042,tareaTDv3,2020.2.5,Win32,60,,,left,1,0.407,0,11,11,44,1,5000,0,150000,30
,,,,,,,,,,,,,,,,,,,,,,,2,salon,2022-07-08_10h29.12.042,tareaTDv3,2020.2.5,Win32,60,,,right,1,0.208,0,12,12,82,1,25000,0,75000,90
,,,,,,,,,,,,,,,,,,,,,,,2,salon,2022-07-08_10h29.12.042,tareaTDv3,2020.2.5,Win32,60,,,right,1,0.118,0,13,13,57,1,5000,0,55000,151
,,,,,,,,,,,,,,,,,,,,,,,2,salon,2022-07-08_10h29.12.042,tareaTDv3,2020.2.5,Win32,60,,,left,1,0.201,0,14,14,25,1,10000,0,10000,150
,,,,,,,,,,,,,,,,,,,,,,,2,salon,2022-07-08_10h29.12.042,tareaTDv3,2020.2.5,Win32,60,,,right,1,0.135,0,15,15,48,1,5000,0,105000,60
,,,,,,,,,,,,,,,,,,,,,,,2,salon,2022-07-08_10h29.12.042,tareaTDv3,2020.2.5,Win32,60,,,right,1,0.057,0,16,16,11,1,10000,0,39000,29
,,,,,,,,,,,,,,,,,,,,,,,2,salon,2022-07-08_10h29.12.042,tareaTDv3,2020.2.5,Win32,60,,,left,1,0.128,0,17,17,78,1,25000,0,125000,59
,,,,,,,,,,,,,,,,,,,,,,,2,salon,2022-07-08_10h29.12.042,tareaTDv3,2020.2.5,Win32,60,,,left,1,0.105,0,18,18,21,1,10000,0,40000,91
,,,,,,,,,,,,,,,,,,,,,,,2,salon,2022-07-08_10h29.12.042,tareaTDv3,2020.2.5,Win32,60,,,right,1,0.101,0,19,19,15,1,10000,0,20000,59
,,,,,,,,,,,,,,,,,,,,,,,2,salon,2022-07-08_10h29.12.042,tareaTDv3,2020.2.5,Win32,60,,,left,1,0.13,0,20,20,40,1,5000,0,14000,31
,,,,,,,,,,,,,,,,,,,,,,,2,salon,2022-07-08_10h29.12.042,tareaTDv3,2020.2.5,Win32,60,,,right,1,0.178,0,21,21,52,1,5000,0,56000,89
,,,,,,,,,,,,,,,,,,,,,,,2,salon,2022-07-08_10h29.12.042,tareaTDv3,2020.2.5,Win32,60,,,right,1,1.015,0,22,22,85,1,25000,0,35000,150
,,,,,,,,,,,,,,,,,,,,,,,2,salon,2022-07-08_10h29.12.042,tareaTDv3,2020.2.5,Win32,60,,,left,1,0.53,0,23,23,69,1,25000,0,150000,9
,,,,,,,,,,,,,,,,,,,,,,,2,salon,2022-07-08_10h29.12.042,tareaTDv3,2020.2.5,Win32,60,,,left,1,0.108,0,24,24,67,1,25000,0,75000,10
,,,,,,,,,,,,,,,,,,,,,,,2,salon,2022-07-08_10h29.12.042,tareaTDv3,2020.2.5,Win32,60,,,left,1,0.068,0,25,25,42,1,5000,0,56000,29
,,,,,,,,,,,,,,,,,,,,,,,2,salon,2022-07-08_10h29.12.042,tareaTDv3,2020.2.5,Win32,60,,,right,1,0.941,0,26,26,12,1,10000,0,60000,29
,,,,,,,,,,,,,,,,,,,,,,,2,salon,2022-07-08_10h29.12.042,tareaTDv3,2020.2.5,Win32,60,,,right,1,0.094,0,27,27,65,1,25000,0,35000,11
,,,,,,,,,,,,,,,,,,,,,,,2,salon,2022-07-08_10h29.12.042,tareaTDv3,2020.2.5,Win32,60,,,left,1,0.006,0,28,28,47,1,5000,0,56000,60
,,,,,,,,,,,,,,,,,,,,,,,2,salon,2022-07-08_10h29.12.042,tareaTDv3,2020.2.5,Win32,60,,,left,1,0.153,0,29,29,6,1,10000,0,40000,10
,,,,,,,,,,,,,,,,,,,,,,,2,salon,2022-07-08_10h29.12.042,tareaTDv3,2020.2.5,Win32,60,,,right,1,0.639,0,30,30,61,1,25000,0,55000,6
,,,,,,,,,,,,,,,,,,,,,,,2,salon,2022-07-08_10h29.12.042,tareaTDv3,2020.2.5,Win32,60,,,right,1,0.051,0,31,31,58,1,5000,0,106000,152
,,,,,,,,,,,,,,,,,,,,,,,2,salon,2022-07-08_10h29.12.042,tareaTDv3,2020.2.5,Win32,60,,,left,1,1.088,0,32,32,41,1,5000,0,35000,31
,,,,,,,,,,,,,,,,,,,,,,,2,salon,2022-07-08_10h29.12.042,tareaTDv3,2020.2.5,Win32,60,,,left,1,0.585,0,33,33,49,1,5000,0,149000,59
,,,,,,,,,,,,,,,,,,,,,,,2,salon,2022-07-08_10h29.12.042,tareaTDv3,2020.2.5,Win32,60,,,right,1,0.1,0,34,34,1,1,10000,0,39000,6
,,,,,,,,,,,,,,,,,,,,,,,2,salon,2022-07-08_10h29.12.042,tareaTDv3,2020.2.5,Win32,60,,,right,1,0.028,0,35,35,37,1,5000,0,56000,9
,,,,,,,,,,,,,,,,,,,,,,,2,salon,2022-07-08_10h29.12.042,tareaTDv3,2020.2.5,Win32,60,,,right,1,0.023,0,36,36,45,1,5000,0,15000,61
,,,,,,,,,,,,,,,,,,,,,,,2,salon,2022-07-08_10h29.12.042,tareaTDv3,2020.2.5,Win32,60,,,right,1,0.781,0,37,37,71,1,25000,0,55000,30
,,,,,,,,,,,,,,,,,,,,,,,2,salon,2022-07-08_10h29.12.042,tareaTDv3,2020.2.5,Win32,60,,,left,1,0.478,0,38,38,79,1,25000,0,150000,61
,,,,,,,,,,,,,,,,,,,,,,,2,salon,2022-07-08_10h29.12.042,tareaTDv3,2020.2.5,Win32,60,,,right,1,0.189,0,39,39,9,1,10000,0,151000,11
,,,,,,,,,,,,,,,,,,,,,,,2,salon,2022-07-08_10h29.12.042,tareaTDv3,2020.2.5,Win32,60,,,left,1,0.484,0,40,40,39,1,5000,0,149000,10
,,,,,,,,,,,,,,,,,,,,,,,2,salon,2022-07-08_10h29.12.042,tareaTDv3,2020.2.5,Win32,60,,,right,1,0.442,0,41,41,77,1,25000,0,75000,59
,,,,,,,,,,,,,,,,,,,,,,,2,salon,2022-07-08_10h29.12.042,tareaTDv3,2020.2.5,Win32,60,,,right,1,0.297,0,42,42,14,1,10000,0,150000,30
,,,,,,,,,,,,,,,,,,,,,,,2,salon,2022-07-08_10h29.12.042,tareaTDv3,2020.2.5,Win32,60,,,left,1,0.152,0,43,43,86,1,25000,0,55000,151
,,,,,,,,,,,,,,,,,,,,,,,2,salon,2022-07-08_10h29.12.042,tareaTDv3,2020.2.5,Win32,60,,,left,1,0.176,0,44,44,66,1,25000,0,55000,11
,,,,,,,,,,,,,,,,,,,,,,,2,salon,2022-07-08_10h29.12.042,tareaTDv3,2020.2.5,Win32,60,,,left,1,0.126,0,45,45,13,1,10000,0,111000,30
,,,,,,,,,,,,,,,,,,,,,,,2,salon,2022-07-08_10h29.12.042,tareaTDv3,2020.2.5,Win32,60,,,right,1,0.145,0,46,46,34,1,5000,0,151000,4
,,,,,,,,,,,,,,,,,,,,,,,2,salon,2022-07-08_10h29.12.042,tareaTDv3,2020.2.5,Win32,60,,,left,1,0.066,0,47,47,8,1,10000,0,111000,10
,,,,,,,,,,,,,,,,,,,,,,,2,salon,2022-07-08_10h29.12.042,tareaTDv3,2020.2.5,Win32,60,,,right,1,0.221,0,48,48,33,1,5000,0,104000,5
,,,,,,,,,,,,,,,,,,,,,,,2,salon,2022-07-08_10h29.12.042,tareaTDv3,2020.2.5,Win32,60,,,right,1,0.211,0,49,49,56,1,5000,0,35000,150
,,,,,,,,,,,,,,,,,,,,,,,2,salon,2022-07-08_10h29.12.042,tareaTDv3,2020.2.5,Win32,60,,,left,1,0.114,0,50,50,59,1,5000,0,151000,150
,,,,,,,,,,,,,,,,,,,,,,,2,salon,2022-07-08_10h29.12.042,tareaTDv3,2020.2.5,Win32,60,,,right,1,0.047,0,51,51,62,1,25000,0,75000,5
,,,,,,,,,,,,,,,,,,,,,,,2,salon,2022-07-08_10h29.12.042,tareaTDv3,2020.2.5,Win32,60,,,left,1,0.147,0,52,52,84,1,25000,0,150000,89
,,,,,,,,,,,,,,,,,,,,,,,2,salon,2022-07-08_10h29.12.042,tareaTDv3,2020.2.5,Win32,60,,,left,1,0.603,0,53,53,27,1,10000,0,61000,150
,,,,,,,,,,,,,,,,,,,,,,,2,salon,2022-07-08_10h29.12.042,tareaTDv3,2020.2.5,Win32,60,,,left,1,0.126,0,54,54,4,1,10000,0,150000,5
,,,,,,,,,,,,,,,,,,,,,,,2,salon,2022-07-08_10h29.12.042,tareaTDv3,2020.2.5,Win32,60,,,right,1,0.034,0,55,55,2,1,10000,0,61000,4
,,,,,,,,,,,,,,,,,,,,,,,2,salon,2022-07-08_10h29.12.042,tareaTDv3,2020.2.5,Win32,60,,,left,1,0.016,0,56,56,54,1,5000,0,150000,90
,,,,,,,,,,,,,,,,,,,,,,,2,salon,2022-07-08_10h29.12.042,tareaTDv3,2020.2.5,Win32,60,,,right,1,0.169,0,57,57,81,1,25000,0,55000,90
,,,,,,,,,,,,,,,,,,,,,,,2,salon,2022-07-08_10h29.12.042,tareaTDv3,2020.2.5,Win32,60,,,left,1,0.435,0,58,58,24,1,10000,0,149000,89
,,,,,,,,,,,,,,,,,,,,,,,2,salon,2022-07-08_10h29.12.042,tareaTDv3,2020.2.5,Win32,60,,,right,1,0.226,0,59,59,17,1,10000,0,60000,60
,,,,,,,,,,,,,,,,,,,,,,,2,salon,2022-07-08_10h29.12.042,tareaTDv3,2020.2.5,Win32,60,,,left,1,0.051,0,60,60,64,1,25000,0,150000,4
,,,,,,,,,,,,,,,,,,,,,,,2,salon,2022-07-08_10h29.12.042,tareaTDv3,2020.2.5,Win32,60,,,left,1,0.462,0,61,61,23,1,10000,0,110000,90
,,,,,,,,,,,,,,,,,,,,,,,2,salon,2022-07-08_10h29.12.042,tareaTDv3,2020.2.5,Win32,60,,,left,1,0.116,0,62,62,74,1,25000,0,150000,29
,,,,,,,,,,,,,,,,,,,,,,,2,salon,2022-07-08_10h29.12.042,tareaTDv3,2020.2.5,Win32,60,,,left,1,0.45,0,63,63,36,1,5000,0,36000,9
,,,,,,,,,,,,,,,,,,,,,,,2,salon,2022-07-08_10h29.12.042,tareaTDv3,2020.2.5,Win32,60,,,left,1,0.96,0,64,64,26,1,10000,0,39000,150
,,,,,,,,,,,,,,,,,,,,,,,2,salon,2022-07-08_10h29.12.042,tareaTDv3,2020.2.5,Win32,60,,,left,1,0.404,0,65,65,60,1,25000,0,35000,5
,,,,,,,,,,,,,,,,,,,,,,,2,salon,2022-07-08_10h29.12.042,tareaTDv3,2020.2.5,Win32,60,,,left,1,0.339,0,66,66,75,1,25000,0,35000,60
,,,,,,,,,,,,,,,,,,,,,,,2,salon,2022-07-08_10h29.12.042,tareaTDv3,2020.2.5,Win32,60,,,right,1,0.12,0,67,67,83,1,25000,0,125000,89
,,,,,,,,,,,,,,,,,,,,,,,2,salon,2022-07-08_10h29.12.042,tareaTDv3,2020.2.5,Win32,60,,,right,1,0.185,0,68,68,43,1,5000,0,106000,29
,,,,,,,,,,,,,,,,,,,,,,,2,salon,2022-07-08_10h29.12.042,tareaTDv3,2020.2.5,Win32,60,,,right,1,0.042,0,69,69,63,1,25000,0,125000,4
,,,,,,,,,,,,,,,,,,,,,,,2,salon,2022-07-08_10h29.12.042,tareaTDv3,2020.2.5,Win32,60,,,right,1,0.858,0,70,70,53,1,5000,0,104000,90
,,,,,,,,,,,,,,,,,,,,,,,2,salon,2022-07-08_10h29.12.042,tareaTDv3,2020.2.5,Win32,60,,,right,1,0.185,0,71,71,7,1,10000,0,59000,9
,,,,,,,,,,,,,,,,,,,,,,,2,salon,2022-07-08_10h29.12.042,tareaTDv3,2020.2.5,Win32,60,,,left,1,0.566,0,72,72,51,1,5000,0,35000,89
,,,,,,,,,,,,,,,,,,,,,,,2,salon,2022-07-08_10h29.12.042,tareaTDv3,2020.2.5,Win32,60,,,left,1,0.206,0,73,73,68,1,25000,0,125000,9
,,,,,,,,,,,,,,,,,,,,,,,2,salon,2022-07-08_10h29.12.042,tareaTDv3,2020.2.5,Win32,60,,,left,1,1.03,0,74,74,29,1,10000,0,151000,151
,,,,,,,,,,,,,,,,,,,,,,,2,salon,2022-07-08_10h29.12.042,tareaTDv3,2020.2.5,Win32,60,,,left,1,0.702,0,75,75,87,1,25000,0,75000,151
,,,,,,,,,,,,,,,,,,,,,,,2,salon,2022-07-08_10h29.12.042,tareaTDv3,2020.2.5,Win32,60,,,right,1,0.382,0,76,76,73,1,25000,0,125000,31
,,,,,,,,,,,,,,,,,,,,,,,2,salon,2022-07-08_10h29.12.042,tareaTDv3,2020.2.5,Win32,60,,,right,1,0.419,0,77,77,30,1,5000,0,16000,4
,,,,,,,,,,,,,,,,,,,,,,,2,salon,2022-07-08_10h29.12.042,tareaTDv3,2020.2.5,Win32,60,,,left,1,0.569,0,78,78,70,1,25000,0,35000,30
,,,,,,,,,,,,,,,,,,,,,,,2,salon,2022-07-08_10h29.12.042,tareaTDv3,2020.2.5,Win32,60,,,right,1,0.619,0,79,79,18,1,10000,0,110000,60
,,,,,,,,,,,,,,,,,,,,,,,2,salon,2022-07-08_10h29.12.042,tareaTDv3,2020.2.5,Win32,60,,,left,1,0.591,0,80,80,38,1,5000,0,104000,10
,,,,,,,,,,,,,,,,,,,,,,,2,salon,2022-07-08_10h29.12.042,tareaTDv3,2020.2.5,Win32,60,,,left,1,1.153,0,81,81,32,1,5000,0,54000,5
,,,,,,,,,,,,,,,,,,,,,,,2,salon,2022-07-08_10h29.12.042,tareaTDv3,2020.2.5,Win32,60,,,left,1,0.618,0,82,82,20,1,10000,0,20000,90
,,,,,,,,,,,,,,,,,,,,,,,2,salon,2022-07-08_10h29.12.042,tareaTDv3,2020.2.5,Win32,60,,,left,1,0.244,0,83,83,72,1,25000,0,75000,31
,,,,,,,,,,,,,,,,,,,,,,,2,salon,2022-07-08_10h29.12.042,tareaTDv3,2020.2.5,Win32,60,,,right,1,0.684,0,84,84,80,1,25000,0,35000,90
,,,,,,,,,,,,,,,,,,,,,,,2,salon,2022-07-08_10h29.12.042,tareaTDv3,2020.2.5,Win32,60,,,left,1,0.108,0,85,85,10,1,10000,0,21000,31
,,,,,,,,,,,,,,,,,,,,,,,2,salon,2022-07-08_10h29.12.042,tareaTDv3,2020.2.5,Win32,60,,,left,1,0.173,0,86,86,89,1,25000,0,150000,150
,,,,,,,,,,,,,,,,,,,,,,,2,salon,2022-07-08_10h29.12.042,tareaTDv3,2020.2.5,Win32,60,,,left,1,0.169,0,87,87,3,1,10000,0,109000,5
,,,,,,,,,,,,,,,,,,,,,,,2,salon,2022-07-08_10h29.12.042,tareaTDv3,2020.2.5,Win32,60,,,left,1,0.283,0,88,88,46,1,5000,0,36000,61
,,,,,,,,,,,,,,,,,,,,,,,2,salon,2022-07-08_10h29.12.042,tareaTDv3,2020.2.5,Win32,60,,,left,1,0.119,0,89,89,0,1,10000,0,20000,5
