key1.keys,key1.rt,key2.keys,key2.rt,key2_2.keys,key2_2.rt,key2_3.keys,key2_3.rt,key3.keys,key3.rt,key4.keys,key4.rt,respP.keys,respP.corr,respP.rt,Practice.thisRepN,Practice.thisTrialN,Practice.thisN,Practice.thisIndex,Practice.ran,ssAmount,llAmount,llDelay,session,participant,date,expName,psychopyVersion,OS,frameRate,key5.keys,key5.rt,respT.keys,respT.corr,respT.rt,trials.thisRepN,trials.thisTrialN,trials.thisN,trials.thisIndex,trials.ran,ss_Amt,ss_Delay,ll_Amt,ll_Delay,key_resp_4.keys,key_resp_4.rt
space,2.288,space,3.9038,space,0.439,space,1.7707,left,1.601,space,2.2719,right,1,1.7753,0,0,0,1,1,25000,35000,150,002,1000697575,2022-06-02_18h17.53.431,tareaTDv3,2020.2.5,MacIntel,60,,,,,,,,,,,,,,,,
,,,,,,,,,,,,left,1,4.2568,0,1,1,0,1,10000,109000,9,002,1000697575,2022-06-02_18h17.53.431,tareaTDv3,2020.2.5,MacIntel,60,,,,,,,,,,,,,,,,
,,,,,,,,,,,,right,0,2.3587,0,2,2,2,1,10000,19000,89,002,1000697575,2022-06-02_18h17.53.431,tareaTDv3,2020.2.5,MacIntel,60,,,,,,,,,,,,,,,,
,,,,,,,,,,,,,,,,,,,,,,,002,1000697575,2022-06-02_18h17.53.431,tareaTDv3,2020.2.5,MacIntel,60,g,46.4077,right,1,2.4405,0,0,0,66,1,25000,0,55000,11,,
,,,,,,,,,,,,,,,,,,,,,,,002,1000697575,2022-06-02_18h17.53.431,tareaTDv3,2020.2.5,MacIntel,60,,,right,0,8.8921,0,1,1,1,1,10000,0,39000,6,,
,,,,,,,,,,,,,,,,,,,,,,,002,1000697575,2022-06-02_18h17.53.431,tareaTDv3,2020.2.5,MacIntel,60,,,right,1,14.5871,0,2,2,54,1,5000,0,150000,90,,
,,,,,,,,,,,,,,,,,,,,,,,002,1000697575,2022-06-02_18h17.53.431,tareaTDv3,2020.2.5,MacIntel,60,,,right,0,1.6572,0,3,3,75,1,25000,0,35000,60,,
,,,,,,,,,,,,,,,,,,,,,,,002,1000697575,2022-06-02_18h17.53.431,tareaTDv3,2020.2.5,MacIntel,60,,,left,1,1.206,0,4,4,32,1,5000,0,54000,5,,
,,,,,,,,,,,,,,,,,,,,,,,002,1000697575,2022-06-02_18h17.53.431,tareaTDv3,2020.2.5,MacIntel,60,,,right,0,2.212,0,5,5,72,1,25000,0,75000,31,,
,,,,,,,,,,,,,,,,,,,,,,,002,1000697575,2022-06-02_18h17.53.431,tareaTDv3,2020.2.5,MacIntel,60,,,left,0,1.988,0,6,6,70,1,25000,0,35000,30,,
,,,,,,,,,,,,,,,,,,,,,,,002,1000697575,2022-06-02_18h17.53.431,tareaTDv3,2020.2.5,MacIntel,60,,,left,1,11.4634,0,7,7,60,1,25000,0,35000,5,,
,,,,,,,,,,,,,,,,,,,,,,,002,1000697575,2022-06-02_18h17.53.431,tareaTDv3,2020.2.5,MacIntel,60,,,left,0,17.9585,0,8,8,46,1,5000,0,36000,61,,
,,,,,,,,,,,,,,,,,,,,,,,002,1000697575,2022-06-02_18h17.53.431,tareaTDv3,2020.2.5,MacIntel,60,,,left,0,1.3286,0,9,9,84,1,25000,0,150000,89,,
,,,,,,,,,,,,,,,,,,,,,,,002,1000697575,2022-06-02_18h17.53.431,tareaTDv3,2020.2.5,MacIntel,60,,,left,0,2.0697,0,10,10,26,1,10000,0,39000,150,,
,,,,,,,,,,,,,,,,,,,,,,,002,1000697575,2022-06-02_18h17.53.431,tareaTDv3,2020.2.5,MacIntel,60,,,left,1,1.0951,0,11,11,69,1,25000,0,150000,9,,
,,,,,,,,,,,,,,,,,,,,,,,002,1000697575,2022-06-02_18h17.53.431,tareaTDv3,2020.2.5,MacIntel,60,,,left,0,0.9767,0,12,12,83,1,25000,0,125000,89,,
,,,,,,,,,,,,,,,,,,,,,,,002,1000697575,2022-06-02_18h17.53.431,tareaTDv3,2020.2.5,MacIntel,60,,,left,0,2.5365,0,13,13,17,1,10000,0,60000,60,,
,,,,,,,,,,,,,,,,,,,,,,,002,1000697575,2022-06-02_18h17.53.431,tareaTDv3,2020.2.5,MacIntel,60,,,right,1,2.9405,0,14,14,9,1,10000,0,151000,11,,
,,,,,,,,,,,,,,,,,,,,,,,002,1000697575,2022-06-02_18h17.53.431,tareaTDv3,2020.2.5,MacIntel,60,,,right,0,0.8726,0,15,15,85,1,25000,0,35000,150,,
,,,,,,,,,,,,,,,,,,,,,,,002,1000697575,2022-06-02_18h17.53.431,tareaTDv3,2020.2.5,MacIntel,60,,,left,0,1.1898,0,16,16,89,1,25000,0,150000,150,,
,,,,,,,,,,,,,,,,,,,,,,,002,1000697575,2022-06-02_18h17.53.431,tareaTDv3,2020.2.5,MacIntel,60,,,right,1,6.6731,0,17,17,6,1,10000,0,40000,10,,
,,,,,,,,,,,,,,,,,,,,,,,002,1000697575,2022-06-02_18h17.53.431,tareaTDv3,2020.2.5,MacIntel,60,,,right,1,6.9739,0,18,18,47,1,5000,0,56000,60,,
,,,,,,,,,,,,,,,,,,,,,,,002,1000697575,2022-06-02_18h17.53.431,tareaTDv3,2020.2.5,MacIntel,60,,,right,0,3.8053,0,19,19,58,1,5000,0,106000,152,,
,,,,,,,,,,,,,,,,,,,,,,,002,1000697575,2022-06-02_18h17.53.431,tareaTDv3,2020.2.5,MacIntel,60,,,left,0,8.6355,0,20,20,65,1,25000,0,35000,11,,
,,,,,,,,,,,,,,,,,,,,,,,002,1000697575,2022-06-02_18h17.53.431,tareaTDv3,2020.2.5,MacIntel,60,,,right,1,1.7235,0,21,21,27,1,10000,0,61000,150,,
,,,,,,,,,,,,,,,,,,,,,,,002,1000697575,2022-06-02_18h17.53.431,tareaTDv3,2020.2.5,MacIntel,60,,,right,1,0.8504,0,22,22,33,1,5000,0,104000,5,,
,,,,,,,,,,,,,,,,,,,,,,,002,1000697575,2022-06-02_18h17.53.431,tareaTDv3,2020.2.5,MacIntel,60,,,left,0,1.4279,0,23,23,88,1,25000,0,125000,149,,
,,,,,,,,,,,,,,,,,,,,,,,002,1000697575,2022-06-02_18h17.53.431,tareaTDv3,2020.2.5,MacIntel,60,,,left,0,0.7561,0,24,24,57,1,5000,0,55000,151,,
,,,,,,,,,,,,,,,,,,,,,,,002,1000697575,2022-06-02_18h17.53.431,tareaTDv3,2020.2.5,MacIntel,60,,,,0,,0,25,25,25,1,10000,0,10000,150,,
,,,,,,,,,,,,,,,,,,,,,,,002,1000697575,2022-06-02_18h17.53.431,tareaTDv3,2020.2.5,MacIntel,60,,,left,1,7.4712,0,26,26,77,1,25000,0,75000,59,,
,,,,,,,,,,,,,,,,,,,,,,,002,1000697575,2022-06-02_18h17.53.431,tareaTDv3,2020.2.5,MacIntel,60,,,left,0,1.9601,0,27,27,87,1,25000,0,75000,151,,
,,,,,,,,,,,,,,,,,,,,,,,002,1000697575,2022-06-02_18h17.53.431,tareaTDv3,2020.2.5,MacIntel,60,,,right,0,5.3033,0,28,28,78,1,25000,0,125000,59,,
,,,,,,,,,,,,,,,,,,,,,,,002,1000697575,2022-06-02_18h17.53.431,tareaTDv3,2020.2.5,MacIntel,60,,,left,1,3.692,0,29,29,49,1,5000,0,149000,59,,
,,,,,,,,,,,,,,,,,,,,,,,002,1000697575,2022-06-02_18h17.53.431,tareaTDv3,2020.2.5,MacIntel,60,,,right,1,0.7065,0,30,30,39,1,5000,0,149000,10,,
,,,,,,,,,,,,,,,,,,,,,,,002,1000697575,2022-06-02_18h17.53.431,tareaTDv3,2020.2.5,MacIntel,60,,,left,1,6.2597,0,31,31,68,1,25000,0,125000,9,,
,,,,,,,,,,,,,,,,,,,,,,,002,1000697575,2022-06-02_18h17.53.431,tareaTDv3,2020.2.5,MacIntel,60,,,right,1,5.4966,0,32,32,0,1,10000,0,20000,5,,
,,,,,,,,,,,,,,,,,,,,,,,002,1000697575,2022-06-02_18h17.53.431,tareaTDv3,2020.2.5,MacIntel,60,,,left,1,18.637,0,33,33,14,1,10000,0,150000,30,,
,,,,,,,,,,,,,,,,,,,,,,,002,1000697575,2022-06-02_18h17.53.431,tareaTDv3,2020.2.5,MacIntel,60,,,right,1,11.2543,0,34,34,28,1,10000,0,109000,149,,
,,,,,,,,,,,,,,,,,,,,,,,002,1000697575,2022-06-02_18h17.53.431,tareaTDv3,2020.2.5,MacIntel,60,,,right,1,6.3087,0,35,35,42,1,5000,0,56000,29,,
,,,,,,,,,,,,,,,,,,,,,,,002,1000697575,2022-06-02_18h17.53.431,tareaTDv3,2020.2.5,MacIntel,60,,,left,1,1.7059,0,36,36,8,1,10000,0,111000,10,,
,,,,,,,,,,,,,,,,,,,,,,,002,1000697575,2022-06-02_18h17.53.431,tareaTDv3,2020.2.5,MacIntel,60,,,right,1,0.1415,0,37,37,38,1,5000,0,104000,10,,
,,,,,,,,,,,,,,,,,,,,,,,002,1000697575,2022-06-02_18h17.53.431,tareaTDv3,2020.2.5,MacIntel,60,,,left,0,1.0884,0,38,38,22,1,10000,0,61000,89,,
,,,,,,,,,,,,,,,,,,,,,,,002,1000697575,2022-06-02_18h17.53.431,tareaTDv3,2020.2.5,MacIntel,60,,,left,1,0.3781,0,39,39,52,1,5000,0,56000,89,,
,,,,,,,,,,,,,,,,,,,,,,,002,1000697575,2022-06-02_18h17.53.431,tareaTDv3,2020.2.5,MacIntel,60,,,left,1,4.156,0,40,40,24,1,10000,0,149000,89,,
,,,,,,,,,,,,,,,,,,,,,,,002,1000697575,2022-06-02_18h17.53.431,tareaTDv3,2020.2.5,MacIntel,60,,,right,1,1.3237,0,41,41,37,1,5000,0,56000,9,,
,,,,,,,,,,,,,,,,,,,,,,,002,1000697575,2022-06-02_18h17.53.431,tareaTDv3,2020.2.5,MacIntel,60,,,left,1,0.5227,0,42,42,5,1,10000,0,19000,11,,
,,,,,,,,,,,,,,,,,,,,,,,002,1000697575,2022-06-02_18h17.53.431,tareaTDv3,2020.2.5,MacIntel,60,,,right,1,0.0032,0,43,43,56,1,5000,0,35000,150,,
,,,,,,,,,,,,,,,,,,,,,,,002,1000697575,2022-06-02_18h17.53.431,tareaTDv3,2020.2.5,MacIntel,60,,,left,0,0.0576,0,44,44,55,1,5000,0,14000,149,,
,,,,,,,,,,,,,,,,,,,,,,,002,1000697575,2022-06-02_18h17.53.431,tareaTDv3,2020.2.5,MacIntel,60,,,left,1,0.0671,0,45,45,50,1,5000,0,15000,91,,
,,,,,,,,,,,,,,,,,,,,,,,002,1000697575,2022-06-02_18h17.53.431,tareaTDv3,2020.2.5,MacIntel,60,,,right,1,0.0699,0,46,46,16,1,10000,0,39000,59,,
,,,,,,,,,,,,,,,,,,,,,,,002,1000697575,2022-06-02_18h17.53.431,tareaTDv3,2020.2.5,MacIntel,60,,,right,1,0.0107,0,47,47,67,1,25000,0,75000,10,,
,,,,,,,,,,,,,,,,,,,,,,,002,1000697575,2022-06-02_18h17.53.431,tareaTDv3,2020.2.5,MacIntel,60,,,left,1,0.0393,0,48,48,34,1,5000,0,151000,4,,
,,,,,,,,,,,,,,,,,,,,,,,002,1000697575,2022-06-02_18h17.53.431,tareaTDv3,2020.2.5,MacIntel,60,,,right,1,4.6144,0,49,49,73,1,25000,0,125000,31,,
,,,,,,,,,,,,,,,,,,,,,,,002,1000697575,2022-06-02_18h17.53.431,tareaTDv3,2020.2.5,MacIntel,60,,,right,0,1.2709,0,50,50,12,1,10000,0,60000,29,,
,,,,,,,,,,,,,,,,,,,,,,,002,1000697575,2022-06-02_18h17.53.431,tareaTDv3,2020.2.5,MacIntel,60,,,right,1,0.0629,0,51,51,3,1,10000,0,109000,5,,
,,,,,,,,,,,,,,,,,,,,,,,002,1000697575,2022-06-02_18h17.53.431,tareaTDv3,2020.2.5,MacIntel,60,,,right,1,3.5247,0,52,52,2,1,10000,0,61000,4,,
,,,,,,,,,,,,,,,,,,,,,,,002,1000697575,2022-06-02_18h17.53.431,tareaTDv3,2020.2.5,MacIntel,60,,,left,0,4.3895,0,53,53,20,1,10000,0,20000,90,,
,,,,,,,,,,,,,,,,,,,,,,,002,1000697575,2022-06-02_18h17.53.431,tareaTDv3,2020.2.5,MacIntel,60,,,right,1,0.0027,0,54,54,36,1,5000,0,36000,9,,
,,,,,,,,,,,,,,,,,,,,,,,002,1000697575,2022-06-02_18h17.53.431,tareaTDv3,2020.2.5,MacIntel,60,,,right,1,0.0899,0,55,55,71,1,25000,0,55000,30,,
,,,,,,,,,,,,,,,,,,,,,,,002,1000697575,2022-06-02_18h17.53.431,tareaTDv3,2020.2.5,MacIntel,60,,,left,1,0.0621,0,56,56,79,1,25000,0,150000,61,,
,,,,,,,,,,,,,,,,,,,,,,,002,1000697575,2022-06-02_18h17.53.431,tareaTDv3,2020.2.5,MacIntel,60,,,right,1,0.0085,0,57,57,63,1,25000,0,125000,4,,
,,,,,,,,,,,,,,,,,,,,,,,002,1000697575,2022-06-02_18h17.53.431,tareaTDv3,2020.2.5,MacIntel,60,,,right,0,0.0718,0,58,58,41,1,5000,0,35000,31,,
,,,,,,,,,,,,,,,,,,,,,,,002,1000697575,2022-06-02_18h17.53.431,tareaTDv3,2020.2.5,MacIntel,60,,,left,1,0.0216,0,59,59,51,1,5000,0,35000,89,,
,,,,,,,,,,,,,,,,,,,,,,,002,1000697575,2022-06-02_18h17.53.431,tareaTDv3,2020.2.5,MacIntel,60,,,right,1,0.0439,0,60,60,43,1,5000,0,106000,29,,
,,,,,,,,,,,,,,,,,,,,,,,002,1000697575,2022-06-02_18h17.53.431,tareaTDv3,2020.2.5,MacIntel,60,,,left,1,0.0386,0,61,61,82,1,25000,0,75000,90,,
,,,,,,,,,,,,,,,,,,,,,,,002,1000697575,2022-06-02_18h17.53.431,tareaTDv3,2020.2.5,MacIntel,60,,,right,0,0.0566,0,62,62,53,1,5000,0,104000,90,,
,,,,,,,,,,,,,,,,,,,,,,,002,1000697575,2022-06-02_18h17.53.431,tareaTDv3,2020.2.5,MacIntel,60,,,left,1,0.0067,0,63,63,7,1,10000,0,59000,9,,
,,,,,,,,,,,,,,,,,,,,,,,002,1000697575,2022-06-02_18h17.53.431,tareaTDv3,2020.2.5,MacIntel,60,,,left,0,0.0892,0,64,64,44,1,5000,0,150000,30,,
,,,,,,,,,,,,,,,,,,,,,,,002,1000697575,2022-06-02_18h17.53.431,tareaTDv3,2020.2.5,MacIntel,60,,,left,0,0.0674,0,65,65,35,1,5000,0,15000,11,,
,,,,,,,,,,,,,,,,,,,,,,,002,1000697575,2022-06-02_18h17.53.431,tareaTDv3,2020.2.5,MacIntel,60,,,left,1,0.0928,0,66,66,11,1,10000,0,39000,29,,
,,,,,,,,,,,,,,,,,,,,,,,002,1000697575,2022-06-02_18h17.53.431,tareaTDv3,2020.2.5,MacIntel,60,,,right,1,0.1006,0,67,67,4,1,10000,0,150000,5,,
,,,,,,,,,,,,,,,,,,,,,,,002,1000697575,2022-06-02_18h17.53.431,tareaTDv3,2020.2.5,MacIntel,60,,,right,1,0.0076,0,68,68,62,1,25000,0,75000,5,,
,,,,,,,,,,,,,,,,,,,,,,,002,1000697575,2022-06-02_18h17.53.431,tareaTDv3,2020.2.5,MacIntel,60,,,right,0,0.119,0,69,69,74,1,25000,0,150000,29,,
,,,,,,,,,,,,,,,,,,,,,,,002,1000697575,2022-06-02_18h17.53.431,tareaTDv3,2020.2.5,MacIntel,60,,,left,0,0.0693,0,70,70,23,1,10000,0,110000,90,,
,,,,,,,,,,,,,,,,,,,,,,,002,1000697575,2022-06-02_18h17.53.431,tareaTDv3,2020.2.5,MacIntel,60,,,left,0,0.0081,0,71,71,61,1,25000,0,55000,6,,
,,,,,,,,,,,,,,,,,,,,,,,002,1000697575,2022-06-02_18h17.53.431,tareaTDv3,2020.2.5,MacIntel,60,,,left,1,0.0901,0,72,72,40,1,5000,0,14000,31,,
,,,,,,,,,,,,,,,,,,,,,,,002,1000697575,2022-06-02_18h17.53.431,tareaTDv3,2020.2.5,MacIntel,60,,,left,1,0.0807,0,73,73,48,1,5000,0,105000,60,,
,,,,,,,,,,,,,,,,,,,,,,,002,1000697575,2022-06-02_18h17.53.431,tareaTDv3,2020.2.5,MacIntel,60,,,right,1,0.9184,0,74,74,59,1,5000,0,151000,150,,
,,,,,,,,,,,,,,,,,,,,,,,002,1000697575,2022-06-02_18h17.53.431,tareaTDv3,2020.2.5,MacIntel,60,,,left,0,0.053,0,75,75,45,1,5000,0,15000,61,,
,,,,,,,,,,,,,,,,,,,,,,,002,1000697575,2022-06-02_18h17.53.431,tareaTDv3,2020.2.5,MacIntel,60,,,left,0,0.0798,0,76,76,19,1,10000,0,149000,61,,
,,,,,,,,,,,,,,,,,,,,,,,002,1000697575,2022-06-02_18h17.53.431,tareaTDv3,2020.2.5,MacIntel,60,,,right,1,0.0758,0,77,77,31,1,5000,0,35000,6,,
,,,,,,,,,,,,,,,,,,,,,,,002,1000697575,2022-06-02_18h17.53.431,tareaTDv3,2020.2.5,MacIntel,60,,,left,0,0.02,0,78,78,64,1,25000,0,150000,4,,
,,,,,,,,,,,,,,,,,,,,,,,002,1000697575,2022-06-02_18h17.53.431,tareaTDv3,2020.2.5,MacIntel,60,,,left,0,0.0889,0,79,79,80,1,25000,0,35000,90,,
,,,,,,,,,,,,,,,,,,,,,,,002,1000697575,2022-06-02_18h17.53.431,tareaTDv3,2020.2.5,MacIntel,60,,,left,0,0.0582,0,80,80,21,1,10000,0,40000,91,,
,,,,,,,,,,,,,,,,,,,,,,,002,1000697575,2022-06-02_18h17.53.431,tareaTDv3,2020.2.5,MacIntel,60,,,left,1,0.0059,0,81,81,15,1,10000,0,20000,59,,
,,,,,,,,,,,,,,,,,,,,,,,002,1000697575,2022-06-02_18h17.53.431,tareaTDv3,2020.2.5,MacIntel,60,,,left,0,0.1024,0,82,82,30,1,5000,0,16000,4,,
,,,,,,,,,,,,,,,,,,,,,,,002,1000697575,2022-06-02_18h17.53.431,tareaTDv3,2020.2.5,MacIntel,60,,,right,0,0.1193,0,83,83,81,1,25000,0,55000,90,,
,,,,,,,,,,,,,,,,,,,,,,,002,1000697575,2022-06-02_18h17.53.431,tareaTDv3,2020.2.5,MacIntel,60,,,left,0,0.0556,0,84,84,18,1,10000,0,110000,60,,
,,,,,,,,,,,,,,,,,,,,,,,002,1000697575,2022-06-02_18h17.53.431,tareaTDv3,2020.2.5,MacIntel,60,,,left,0,0.0115,0,85,85,13,1,10000,0,111000,30,,
,,,,,,,,,,,,,,,,,,,,,,,002,1000697575,2022-06-02_18h17.53.431,tareaTDv3,2020.2.5,MacIntel,60,,,right,1,0.0908,0,86,86,29,1,10000,0,151000,151,,
,,,,,,,,,,,,,,,,,,,,,,,002,1000697575,2022-06-02_18h17.53.431,tareaTDv3,2020.2.5,MacIntel,60,,,right,0,0.1383,0,87,87,86,1,25000,0,55000,151,,
,,,,,,,,,,,,,,,,,,,,,,,002,1000697575,2022-06-02_18h17.53.431,tareaTDv3,2020.2.5,MacIntel,60,,,left,0,0.1069,0,88,88,10,1,10000,0,21000,31,,
,,,,,,,,,,,,,,,,,,,,,,,002,1000697575,2022-06-02_18h17.53.431,tareaTDv3,2020.2.5,MacIntel,60,,,left,0,0.2263,0,89,89,76,1,25000,0,55000,60,,
,,,,,,,,,,,,,,,,,,,,,,,002,1000697575,2022-06-02_18h17.53.431,tareaTDv3,2020.2.5,MacIntel,60,,,,,,,,,,,,,,,right,0.1123
