key1.keys,key1.rt,key2.keys,key2.rt,key2_2.keys,key2_2.rt,key2_3.keys,key2_3.rt,key3.keys,key3.rt,key4.keys,key4.rt,respP.keys,respP.corr,respP.rt,Practice.thisRepN,Practice.thisTrialN,Practice.thisN,Practice.thisIndex,Practice.ran,ssAmount,llAmount,llDelay,session,participant,date,expName,psychopyVersion,OS,frameRate,key5.keys,key5.rt,respT.keys,respT.corr,respT.rt,trials.thisRepN,trials.thisTrialN,trials.thisN,trials.thisIndex,trials.ran,ss_Amt,ss_Delay,ll_Amt,ll_Delay
space,3.6181,space,2.0343,space,0.5049,space,0.2827,left,4.9256,space,3.3239,left,1,4.2209,0,0,0,0,1,10000,109000,9,002,1010014520,2022-06-02_18h17.14.948,tareaTDv3,2020.2.5,Win32,60,,,,,,,,,,,,,,
,,,,,,,,,,,,left,0,3.4899,0,1,1,2,1,10000,19000,89,002,1010014520,2022-06-02_18h17.14.948,tareaTDv3,2020.2.5,Win32,60,,,,,,,,,,,,,,
,,,,,,,,,,,,left,0,3.1492,0,2,2,1,1,25000,35000,150,002,1010014520,2022-06-02_18h17.14.948,tareaTDv3,2020.2.5,Win32,60,,,,,,,,,,,,,,
,,,,,,,,,,,,,,,,,,,,,,,002,1010014520,2022-06-02_18h17.14.948,tareaTDv3,2020.2.5,Win32,60,g,2.8613,right,1,2.1306,0,0,0,63,1,25000,0,125000,4
,,,,,,,,,,,,,,,,,,,,,,,002,1010014520,2022-06-02_18h17.14.948,tareaTDv3,2020.2.5,Win32,60,,,left,0,2.227,0,1,1,12,1,10000,0,60000,29
,,,,,,,,,,,,,,,,,,,,,,,002,1010014520,2022-06-02_18h17.14.948,tareaTDv3,2020.2.5,Win32,60,,,right,0,3.9813,0,2,2,71,1,25000,0,55000,30
,,,,,,,,,,,,,,,,,,,,,,,002,1010014520,2022-06-02_18h17.14.948,tareaTDv3,2020.2.5,Win32,60,,,left,1,3.3172,0,3,3,31,1,5000,0,35000,6
,,,,,,,,,,,,,,,,,,,,,,,002,1010014520,2022-06-02_18h17.14.948,tareaTDv3,2020.2.5,Win32,60,,,right,0,4.0589,0,4,4,11,1,10000,0,39000,29
,,,,,,,,,,,,,,,,,,,,,,,002,1010014520,2022-06-02_18h17.14.948,tareaTDv3,2020.2.5,Win32,60,,,right,0,3.9096,0,5,5,76,1,25000,0,55000,60
,,,,,,,,,,,,,,,,,,,,,,,002,1010014520,2022-06-02_18h17.14.948,tareaTDv3,2020.2.5,Win32,60,,,right,0,2.9579,0,6,6,0,1,10000,0,20000,5
,,,,,,,,,,,,,,,,,,,,,,,002,1010014520,2022-06-02_18h17.14.948,tareaTDv3,2020.2.5,Win32,60,,,right,0,7.5246,0,7,7,6,1,10000,0,40000,10
,,,,,,,,,,,,,,,,,,,,,,,002,1010014520,2022-06-02_18h17.14.948,tareaTDv3,2020.2.5,Win32,60,,,right,1,4.7021,0,8,8,48,1,5000,0,105000,60
,,,,,,,,,,,,,,,,,,,,,,,002,1010014520,2022-06-02_18h17.14.948,tareaTDv3,2020.2.5,Win32,60,,,left,0,2.5173,0,9,9,57,1,5000,0,55000,151
,,,,,,,,,,,,,,,,,,,,,,,002,1010014520,2022-06-02_18h17.14.948,tareaTDv3,2020.2.5,Win32,60,,,right,0,1.2447,0,10,10,81,1,25000,0,55000,90
,,,,,,,,,,,,,,,,,,,,,,,002,1010014520,2022-06-02_18h17.14.948,tareaTDv3,2020.2.5,Win32,60,,,left,0,2.2796,0,11,11,27,1,10000,0,61000,150
,,,,,,,,,,,,,,,,,,,,,,,002,1010014520,2022-06-02_18h17.14.948,tareaTDv3,2020.2.5,Win32,60,,,right,1,6.9516,0,12,12,74,1,25000,0,150000,29
,,,,,,,,,,,,,,,,,,,,,,,002,1010014520,2022-06-02_18h17.14.948,tareaTDv3,2020.2.5,Win32,60,,,left,1,7.7496,0,13,13,54,1,5000,0,150000,90
,,,,,,,,,,,,,,,,,,,,,,,002,1010014520,2022-06-02_18h17.14.948,tareaTDv3,2020.2.5,Win32,60,,,right,0,8.6099,0,14,14,1,1,10000,0,39000,6
,,,,,,,,,,,,,,,,,,,,,,,002,1010014520,2022-06-02_18h17.14.948,tareaTDv3,2020.2.5,Win32,60,,,right,1,3.392,0,15,15,49,1,5000,0,149000,59
,,,,,,,,,,,,,,,,,,,,,,,002,1010014520,2022-06-02_18h17.14.948,tareaTDv3,2020.2.5,Win32,60,,,left,1,2.5031,0,16,16,39,1,5000,0,149000,10
,,,,,,,,,,,,,,,,,,,,,,,002,1010014520,2022-06-02_18h17.14.948,tareaTDv3,2020.2.5,Win32,60,,,left,0,6.3083,0,17,17,42,1,5000,0,56000,29
,,,,,,,,,,,,,,,,,,,,,,,002,1010014520,2022-06-02_18h17.14.948,tareaTDv3,2020.2.5,Win32,60,,,right,0,4.9188,0,18,18,66,1,25000,0,55000,11
,,,,,,,,,,,,,,,,,,,,,,,002,1010014520,2022-06-02_18h17.14.948,tareaTDv3,2020.2.5,Win32,60,,,right,0,2.3112,0,19,19,33,1,5000,0,104000,5
,,,,,,,,,,,,,,,,,,,,,,,002,1010014520,2022-06-02_18h17.14.948,tareaTDv3,2020.2.5,Win32,60,,,left,0,3.1791,0,20,20,70,1,25000,0,35000,30
,,,,,,,,,,,,,,,,,,,,,,,002,1010014520,2022-06-02_18h17.14.948,tareaTDv3,2020.2.5,Win32,60,,,right,1,1.6854,0,21,21,2,1,10000,0,61000,4
,,,,,,,,,,,,,,,,,,,,,,,002,1010014520,2022-06-02_18h17.14.948,tareaTDv3,2020.2.5,Win32,60,,,left,0,3.4677,0,22,22,25,1,10000,0,10000,150
,,,,,,,,,,,,,,,,,,,,,,,002,1010014520,2022-06-02_18h17.14.948,tareaTDv3,2020.2.5,Win32,60,,,left,0,11.6804,0,23,23,50,1,5000,0,15000,91
,,,,,,,,,,,,,,,,,,,,,,,002,1010014520,2022-06-02_18h17.14.948,tareaTDv3,2020.2.5,Win32,60,,,right,1,2.6656,0,24,24,14,1,10000,0,150000,30
,,,,,,,,,,,,,,,,,,,,,,,002,1010014520,2022-06-02_18h17.14.948,tareaTDv3,2020.2.5,Win32,60,,,right,0,6.2519,0,25,25,23,1,10000,0,110000,90
,,,,,,,,,,,,,,,,,,,,,,,002,1010014520,2022-06-02_18h17.14.948,tareaTDv3,2020.2.5,Win32,60,,,right,1,8.1815,0,26,26,87,1,25000,0,75000,151
,,,,,,,,,,,,,,,,,,,,,,,002,1010014520,2022-06-02_18h17.14.948,tareaTDv3,2020.2.5,Win32,60,,,right,0,3.1141,0,27,27,56,1,5000,0,35000,150
,,,,,,,,,,,,,,,,,,,,,,,002,1010014520,2022-06-02_18h17.14.948,tareaTDv3,2020.2.5,Win32,60,,,right,0,1.8451,0,28,28,30,1,5000,0,16000,4
,,,,,,,,,,,,,,,,,,,,,,,002,1010014520,2022-06-02_18h17.14.948,tareaTDv3,2020.2.5,Win32,60,,,left,0,1.3374,0,29,29,21,1,10000,0,40000,91
,,,,,,,,,,,,,,,,,,,,,,,002,1010014520,2022-06-02_18h17.14.948,tareaTDv3,2020.2.5,Win32,60,,,left,0,2.8411,0,30,30,85,1,25000,0,35000,150
,,,,,,,,,,,,,,,,,,,,,,,002,1010014520,2022-06-02_18h17.14.948,tareaTDv3,2020.2.5,Win32,60,,,right,0,1.6607,0,31,31,41,1,5000,0,35000,31
,,,,,,,,,,,,,,,,,,,,,,,002,1010014520,2022-06-02_18h17.14.948,tareaTDv3,2020.2.5,Win32,60,,,left,1,3.2608,0,32,32,28,1,10000,0,109000,149
,,,,,,,,,,,,,,,,,,,,,,,002,1010014520,2022-06-02_18h17.14.948,tareaTDv3,2020.2.5,Win32,60,,,left,0,1.9176,0,33,33,55,1,5000,0,14000,149
,,,,,,,,,,,,,,,,,,,,,,,002,1010014520,2022-06-02_18h17.14.948,tareaTDv3,2020.2.5,Win32,60,,,right,1,4.2565,0,34,34,7,1,10000,0,59000,9
,,,,,,,,,,,,,,,,,,,,,,,002,1010014520,2022-06-02_18h17.14.948,tareaTDv3,2020.2.5,Win32,60,,,left,0,2.1294,0,35,35,15,1,10000,0,20000,59
,,,,,,,,,,,,,,,,,,,,,,,002,1010014520,2022-06-02_18h17.14.948,tareaTDv3,2020.2.5,Win32,60,,,left,0,3.6733,0,36,36,88,1,25000,0,125000,149
,,,,,,,,,,,,,,,,,,,,,,,002,1010014520,2022-06-02_18h17.14.948,tareaTDv3,2020.2.5,Win32,60,,,left,1,2.7409,0,37,37,13,1,10000,0,111000,30
,,,,,,,,,,,,,,,,,,,,,,,002,1010014520,2022-06-02_18h17.14.948,tareaTDv3,2020.2.5,Win32,60,,,left,0,1.3567,0,38,38,51,1,5000,0,35000,89
,,,,,,,,,,,,,,,,,,,,,,,002,1010014520,2022-06-02_18h17.14.948,tareaTDv3,2020.2.5,Win32,60,,,left,1,9.1436,0,39,39,38,1,5000,0,104000,10
,,,,,,,,,,,,,,,,,,,,,,,002,1010014520,2022-06-02_18h17.14.948,tareaTDv3,2020.2.5,Win32,60,,,left,0,4.5468,0,40,40,65,1,25000,0,35000,11
,,,,,,,,,,,,,,,,,,,,,,,002,1010014520,2022-06-02_18h17.14.948,tareaTDv3,2020.2.5,Win32,60,,,right,0,1.7856,0,41,41,40,1,5000,0,14000,31
,,,,,,,,,,,,,,,,,,,,,,,002,1010014520,2022-06-02_18h17.14.948,tareaTDv3,2020.2.5,Win32,60,,,right,0,2.2081,0,42,42,46,1,5000,0,36000,61
,,,,,,,,,,,,,,,,,,,,,,,002,1010014520,2022-06-02_18h17.14.948,tareaTDv3,2020.2.5,Win32,60,,,right,1,1.8333,0,43,43,44,1,5000,0,150000,30
,,,,,,,,,,,,,,,,,,,,,,,002,1010014520,2022-06-02_18h17.14.948,tareaTDv3,2020.2.5,Win32,60,,,left,0,2.0612,0,44,44,89,1,25000,0,150000,150
,,,,,,,,,,,,,,,,,,,,,,,002,1010014520,2022-06-02_18h17.14.948,tareaTDv3,2020.2.5,Win32,60,,,right,0,2.2989,0,45,45,86,1,25000,0,55000,151
,,,,,,,,,,,,,,,,,,,,,,,002,1010014520,2022-06-02_18h17.14.948,tareaTDv3,2020.2.5,Win32,60,,,left,1,2.761,0,46,46,59,1,5000,0,151000,150
,,,,,,,,,,,,,,,,,,,,,,,002,1010014520,2022-06-02_18h17.14.948,tareaTDv3,2020.2.5,Win32,60,,,right,0,0.9853,0,47,47,80,1,25000,0,35000,90
,,,,,,,,,,,,,,,,,,,,,,,002,1010014520,2022-06-02_18h17.14.948,tareaTDv3,2020.2.5,Win32,60,,,right,0,1.8512,0,48,48,45,1,5000,0,15000,61
,,,,,,,,,,,,,,,,,,,,,,,002,1010014520,2022-06-02_18h17.14.948,tareaTDv3,2020.2.5,Win32,60,,,right,1,1.7519,0,49,49,18,1,10000,0,110000,60
,,,,,,,,,,,,,,,,,,,,,,,002,1010014520,2022-06-02_18h17.14.948,tareaTDv3,2020.2.5,Win32,60,,,left,0,1.7699,0,50,50,77,1,25000,0,75000,59
,,,,,,,,,,,,,,,,,,,,,,,002,1010014520,2022-06-02_18h17.14.948,tareaTDv3,2020.2.5,Win32,60,,,right,1,2.7121,0,51,51,3,1,10000,0,109000,5
,,,,,,,,,,,,,,,,,,,,,,,002,1010014520,2022-06-02_18h17.14.948,tareaTDv3,2020.2.5,Win32,60,,,left,0,1.3194,0,52,52,75,1,25000,0,35000,60
,,,,,,,,,,,,,,,,,,,,,,,002,1010014520,2022-06-02_18h17.14.948,tareaTDv3,2020.2.5,Win32,60,,,right,1,3.863,0,53,53,36,1,5000,0,36000,9
,,,,,,,,,,,,,,,,,,,,,,,002,1010014520,2022-06-02_18h17.14.948,tareaTDv3,2020.2.5,Win32,60,,,right,0,1.6723,0,54,54,47,1,5000,0,56000,60
,,,,,,,,,,,,,,,,,,,,,,,002,1010014520,2022-06-02_18h17.14.948,tareaTDv3,2020.2.5,Win32,60,,,left,1,1.6889,0,55,55,84,1,25000,0,150000,89
,,,,,,,,,,,,,,,,,,,,,,,002,1010014520,2022-06-02_18h17.14.948,tareaTDv3,2020.2.5,Win32,60,,,left,0,4.8706,0,56,56,58,1,5000,0,106000,152
,,,,,,,,,,,,,,,,,,,,,,,002,1010014520,2022-06-02_18h17.14.948,tareaTDv3,2020.2.5,Win32,60,,,left,1,3.2413,0,57,57,53,1,5000,0,104000,90
,,,,,,,,,,,,,,,,,,,,,,,002,1010014520,2022-06-02_18h17.14.948,tareaTDv3,2020.2.5,Win32,60,,,right,0,5.0741,0,58,58,16,1,10000,0,39000,59
,,,,,,,,,,,,,,,,,,,,,,,002,1010014520,2022-06-02_18h17.14.948,tareaTDv3,2020.2.5,Win32,60,,,left,0,2.6292,0,59,59,72,1,25000,0,75000,31
,,,,,,,,,,,,,,,,,,,,,,,002,1010014520,2022-06-02_18h17.14.948,tareaTDv3,2020.2.5,Win32,60,,,left,1,4.9351,0,60,60,32,1,5000,0,54000,5
,,,,,,,,,,,,,,,,,,,,,,,002,1010014520,2022-06-02_18h17.14.948,tareaTDv3,2020.2.5,Win32,60,,,right,1,1.0894,0,61,61,68,1,25000,0,125000,9
,,,,,,,,,,,,,,,,,,,,,,,002,1010014520,2022-06-02_18h17.14.948,tareaTDv3,2020.2.5,Win32,60,,,left,1,1.2402,0,62,62,24,1,10000,0,149000,89
,,,,,,,,,,,,,,,,,,,,,,,002,1010014520,2022-06-02_18h17.14.948,tareaTDv3,2020.2.5,Win32,60,,,right,1,1.1313,0,63,63,35,1,5000,0,15000,11
,,,,,,,,,,,,,,,,,,,,,,,002,1010014520,2022-06-02_18h17.14.948,tareaTDv3,2020.2.5,Win32,60,,,left,0,2.3922,0,64,64,82,1,25000,0,75000,90
,,,,,,,,,,,,,,,,,,,,,,,002,1010014520,2022-06-02_18h17.14.948,tareaTDv3,2020.2.5,Win32,60,,,right,0,2.998,0,65,65,78,1,25000,0,125000,59
,,,,,,,,,,,,,,,,,,,,,,,002,1010014520,2022-06-02_18h17.14.948,tareaTDv3,2020.2.5,Win32,60,,,right,0,2.7589,0,66,66,67,1,25000,0,75000,10
,,,,,,,,,,,,,,,,,,,,,,,002,1010014520,2022-06-02_18h17.14.948,tareaTDv3,2020.2.5,Win32,60,,,right,1,2.3704,0,67,67,8,1,10000,0,111000,10
,,,,,,,,,,,,,,,,,,,,,,,002,1010014520,2022-06-02_18h17.14.948,tareaTDv3,2020.2.5,Win32,60,,,right,0,3.1247,0,68,68,26,1,10000,0,39000,150
,,,,,,,,,,,,,,,,,,,,,,,002,1010014520,2022-06-02_18h17.14.948,tareaTDv3,2020.2.5,Win32,60,,,right,0,1.9191,0,69,69,20,1,10000,0,20000,90
,,,,,,,,,,,,,,,,,,,,,,,002,1010014520,2022-06-02_18h17.14.948,tareaTDv3,2020.2.5,Win32,60,,,left,0,1.9133,0,70,70,5,1,10000,0,19000,11
,,,,,,,,,,,,,,,,,,,,,,,002,1010014520,2022-06-02_18h17.14.948,tareaTDv3,2020.2.5,Win32,60,,,left,0,8.2683,0,71,71,17,1,10000,0,60000,60
,,,,,,,,,,,,,,,,,,,,,,,002,1010014520,2022-06-02_18h17.14.948,tareaTDv3,2020.2.5,Win32,60,,,right,0,1.9448,0,72,72,60,1,25000,0,35000,5
,,,,,,,,,,,,,,,,,,,,,,,002,1010014520,2022-06-02_18h17.14.948,tareaTDv3,2020.2.5,Win32,60,,,right,1,1.6107,0,73,73,9,1,10000,0,151000,11
,,,,,,,,,,,,,,,,,,,,,,,002,1010014520,2022-06-02_18h17.14.948,tareaTDv3,2020.2.5,Win32,60,,,left,1,3.1083,0,74,74,37,1,5000,0,56000,9
,,,,,,,,,,,,,,,,,,,,,,,002,1010014520,2022-06-02_18h17.14.948,tareaTDv3,2020.2.5,Win32,60,,,left,1,1.3525,0,75,75,4,1,10000,0,150000,5
,,,,,,,,,,,,,,,,,,,,,,,002,1010014520,2022-06-02_18h17.14.948,tareaTDv3,2020.2.5,Win32,60,,,left,0,2.2122,0,76,76,22,1,10000,0,61000,89
,,,,,,,,,,,,,,,,,,,,,,,002,1010014520,2022-06-02_18h17.14.948,tareaTDv3,2020.2.5,Win32,60,,,left,1,2.5251,0,77,77,83,1,25000,0,125000,89
,,,,,,,,,,,,,,,,,,,,,,,002,1010014520,2022-06-02_18h17.14.948,tareaTDv3,2020.2.5,Win32,60,,,right,1,1.3201,0,78,78,34,1,5000,0,151000,4
,,,,,,,,,,,,,,,,,,,,,,,002,1010014520,2022-06-02_18h17.14.948,tareaTDv3,2020.2.5,Win32,60,,,right,1,1.4053,0,79,79,69,1,25000,0,150000,9
,,,,,,,,,,,,,,,,,,,,,,,002,1010014520,2022-06-02_18h17.14.948,tareaTDv3,2020.2.5,Win32,60,,,left,0,2.529,0,80,80,29,1,10000,0,151000,151
,,,,,,,,,,,,,,,,,,,,,,,002,1010014520,2022-06-02_18h17.14.948,tareaTDv3,2020.2.5,Win32,60,,,right,0,1.905,0,81,81,10,1,10000,0,21000,31
,,,,,,,,,,,,,,,,,,,,,,,002,1010014520,2022-06-02_18h17.14.948,tareaTDv3,2020.2.5,Win32,60,,,left,1,2.3829,0,82,82,43,1,5000,0,106000,29
,,,,,,,,,,,,,,,,,,,,,,,002,1010014520,2022-06-02_18h17.14.948,tareaTDv3,2020.2.5,Win32,60,,,left,0,2.6459,0,83,83,52,1,5000,0,56000,89
,,,,,,,,,,,,,,,,,,,,,,,002,1010014520,2022-06-02_18h17.14.948,tareaTDv3,2020.2.5,Win32,60,,,right,0,1.6987,0,84,84,61,1,25000,0,55000,6
,,,,,,,,,,,,,,,,,,,,,,,002,1010014520,2022-06-02_18h17.14.948,tareaTDv3,2020.2.5,Win32,60,,,left,1,5.7167,0,85,85,79,1,25000,0,150000,61
,,,,,,,,,,,,,,,,,,,,,,,002,1010014520,2022-06-02_18h17.14.948,tareaTDv3,2020.2.5,Win32,60,,,right,0,3.4771,0,86,86,62,1,25000,0,75000,5
,,,,,,,,,,,,,,,,,,,,,,,002,1010014520,2022-06-02_18h17.14.948,tareaTDv3,2020.2.5,Win32,60,,,right,1,0.9203,0,87,87,64,1,25000,0,150000,4
,,,,,,,,,,,,,,,,,,,,,,,002,1010014520,2022-06-02_18h17.14.948,tareaTDv3,2020.2.5,Win32,60,,,left,1,2.4241,0,88,88,73,1,25000,0,125000,31
,,,,,,,,,,,,,,,,,,,,,,,002,1010014520,2022-06-02_18h17.14.948,tareaTDv3,2020.2.5,Win32,60,,,right,1,3.2874,0,89,89,19,1,10000,0,149000,61
