key1.keys,key1.rt,key2.keys,key2.rt,key2_2.keys,key2_2.rt,key2_3.keys,key2_3.rt,key3.keys,key3.rt,key4.keys,key4.rt,respP.keys,respP.corr,respP.rt,Practice.thisRepN,Practice.thisTrialN,Practice.thisN,Practice.thisIndex,Practice.ran,ssAmount,llAmount,llDelay,session,participant,date,expName,psychopyVersion,OS,frameRate,fbclid,key5.keys,key5.rt,respT.keys,respT.corr,respT.rt,trials.thisRepN,trials.thisTrialN,trials.thisN,trials.thisIndex,trials.ran,ss_Amt,ss_Delay,ll_Amt,ll_Delay
space,5.2467,space,22.73,space,20.2458,space,5.0185,left,6.5975,space,1.2691,left,0,3.1817,0,0,0,2,1,10000,19000,89,002,155,2022-03-28_21h34.13.801,tareaTDv3,2020.2.5,Win32,60,IwAR0i0b38XuotkVXlZ-fFl4mQM23wZhk3n7VsWre_AyFOkrcYpHCiI9ReV-E,,,,,,,,,,,,,,
,,,,,,,,,,,,left,0,10.8626,0,1,1,1,1,25000,35000,150,002,155,2022-03-28_21h34.13.801,tareaTDv3,2020.2.5,Win32,60,IwAR0i0b38XuotkVXlZ-fFl4mQM23wZhk3n7VsWre_AyFOkrcYpHCiI9ReV-E,,,,,,,,,,,,,,
,,,,,,,,,,,,right,1,5.7791,0,2,2,0,1,10000,109000,9,002,155,2022-03-28_21h34.13.801,tareaTDv3,2020.2.5,Win32,60,IwAR0i0b38XuotkVXlZ-fFl4mQM23wZhk3n7VsWre_AyFOkrcYpHCiI9ReV-E,,,,,,,,,,,,,,
,,,,,,,,,,,,,,,,,,,,,,,002,155,2022-03-28_21h34.13.801,tareaTDv3,2020.2.5,Win32,60,IwAR0i0b38XuotkVXlZ-fFl4mQM23wZhk3n7VsWre_AyFOkrcYpHCiI9ReV-E,g,148.7784,right,1,4.5895,0,0,0,82,1,25000,0,75000,90
,,,,,,,,,,,,,,,,,,,,,,,002,155,2022-03-28_21h34.13.801,tareaTDv3,2020.2.5,Win32,60,IwAR0i0b38XuotkVXlZ-fFl4mQM23wZhk3n7VsWre_AyFOkrcYpHCiI9ReV-E,,,right,1,3.2531,0,1,1,23,1,10000,0,110000,90
,,,,,,,,,,,,,,,,,,,,,,,002,155,2022-03-28_21h34.13.801,tareaTDv3,2020.2.5,Win32,60,IwAR0i0b38XuotkVXlZ-fFl4mQM23wZhk3n7VsWre_AyFOkrcYpHCiI9ReV-E,,,left,0,1.6589,0,2,2,45,1,5000,0,15000,61
,,,,,,,,,,,,,,,,,,,,,,,002,155,2022-03-28_21h34.13.801,tareaTDv3,2020.2.5,Win32,60,IwAR0i0b38XuotkVXlZ-fFl4mQM23wZhk3n7VsWre_AyFOkrcYpHCiI9ReV-E,,,right,1,6.6923,0,3,3,54,1,5000,0,150000,90
,,,,,,,,,,,,,,,,,,,,,,,002,155,2022-03-28_21h34.13.801,tareaTDv3,2020.2.5,Win32,60,IwAR0i0b38XuotkVXlZ-fFl4mQM23wZhk3n7VsWre_AyFOkrcYpHCiI9ReV-E,,,right,0,3.1903,0,4,4,70,1,25000,0,35000,30
,,,,,,,,,,,,,,,,,,,,,,,002,155,2022-03-28_21h34.13.801,tareaTDv3,2020.2.5,Win32,60,IwAR0i0b38XuotkVXlZ-fFl4mQM23wZhk3n7VsWre_AyFOkrcYpHCiI9ReV-E,,,left,1,1.9765,0,5,5,69,1,25000,0,150000,9
,,,,,,,,,,,,,,,,,,,,,,,002,155,2022-03-28_21h34.13.801,tareaTDv3,2020.2.5,Win32,60,IwAR0i0b38XuotkVXlZ-fFl4mQM23wZhk3n7VsWre_AyFOkrcYpHCiI9ReV-E,,,left,0,10.1335,0,6,6,79,1,25000,0,150000,61
,,,,,,,,,,,,,,,,,,,,,,,002,155,2022-03-28_21h34.13.801,tareaTDv3,2020.2.5,Win32,60,IwAR0i0b38XuotkVXlZ-fFl4mQM23wZhk3n7VsWre_AyFOkrcYpHCiI9ReV-E,,,right,0,5.2976,0,7,7,10,1,10000,0,21000,31
,,,,,,,,,,,,,,,,,,,,,,,002,155,2022-03-28_21h34.13.801,tareaTDv3,2020.2.5,Win32,60,IwAR0i0b38XuotkVXlZ-fFl4mQM23wZhk3n7VsWre_AyFOkrcYpHCiI9ReV-E,,,left,0,9.8579,0,8,8,49,1,5000,0,149000,59
,,,,,,,,,,,,,,,,,,,,,,,002,155,2022-03-28_21h34.13.801,tareaTDv3,2020.2.5,Win32,60,IwAR0i0b38XuotkVXlZ-fFl4mQM23wZhk3n7VsWre_AyFOkrcYpHCiI9ReV-E,,,right,1,9.7081,0,9,9,68,1,25000,0,125000,9
,,,,,,,,,,,,,,,,,,,,,,,002,155,2022-03-28_21h34.13.801,tareaTDv3,2020.2.5,Win32,60,IwAR0i0b38XuotkVXlZ-fFl4mQM23wZhk3n7VsWre_AyFOkrcYpHCiI9ReV-E,,,right,1,3.1489,0,10,10,38,1,5000,0,104000,10
,,,,,,,,,,,,,,,,,,,,,,,002,155,2022-03-28_21h34.13.801,tareaTDv3,2020.2.5,Win32,60,IwAR0i0b38XuotkVXlZ-fFl4mQM23wZhk3n7VsWre_AyFOkrcYpHCiI9ReV-E,,,left,0,1.6383,0,11,11,53,1,5000,0,104000,90
,,,,,,,,,,,,,,,,,,,,,,,002,155,2022-03-28_21h34.13.801,tareaTDv3,2020.2.5,Win32,60,IwAR0i0b38XuotkVXlZ-fFl4mQM23wZhk3n7VsWre_AyFOkrcYpHCiI9ReV-E,,,right,1,1.7392,0,12,12,64,1,25000,0,150000,4
,,,,,,,,,,,,,,,,,,,,,,,002,155,2022-03-28_21h34.13.801,tareaTDv3,2020.2.5,Win32,60,IwAR0i0b38XuotkVXlZ-fFl4mQM23wZhk3n7VsWre_AyFOkrcYpHCiI9ReV-E,,,left,0,6.1256,0,13,13,89,1,25000,0,150000,150
,,,,,,,,,,,,,,,,,,,,,,,002,155,2022-03-28_21h34.13.801,tareaTDv3,2020.2.5,Win32,60,IwAR0i0b38XuotkVXlZ-fFl4mQM23wZhk3n7VsWre_AyFOkrcYpHCiI9ReV-E,,,left,0,3.9728,0,14,14,60,1,25000,0,35000,5
,,,,,,,,,,,,,,,,,,,,,,,002,155,2022-03-28_21h34.13.801,tareaTDv3,2020.2.5,Win32,60,IwAR0i0b38XuotkVXlZ-fFl4mQM23wZhk3n7VsWre_AyFOkrcYpHCiI9ReV-E,,,right,0,4.2841,0,15,15,71,1,25000,0,55000,30
,,,,,,,,,,,,,,,,,,,,,,,002,155,2022-03-28_21h34.13.801,tareaTDv3,2020.2.5,Win32,60,IwAR0i0b38XuotkVXlZ-fFl4mQM23wZhk3n7VsWre_AyFOkrcYpHCiI9ReV-E,,,left,0,2.5654,0,16,16,46,1,5000,0,36000,61
,,,,,,,,,,,,,,,,,,,,,,,002,155,2022-03-28_21h34.13.801,tareaTDv3,2020.2.5,Win32,60,IwAR0i0b38XuotkVXlZ-fFl4mQM23wZhk3n7VsWre_AyFOkrcYpHCiI9ReV-E,,,left,0,2.6814,0,17,17,26,1,10000,0,39000,150
,,,,,,,,,,,,,,,,,,,,,,,002,155,2022-03-28_21h34.13.801,tareaTDv3,2020.2.5,Win32,60,IwAR0i0b38XuotkVXlZ-fFl4mQM23wZhk3n7VsWre_AyFOkrcYpHCiI9ReV-E,,,left,1,2.8315,0,18,18,40,1,5000,0,14000,31
,,,,,,,,,,,,,,,,,,,,,,,002,155,2022-03-28_21h34.13.801,tareaTDv3,2020.2.5,Win32,60,IwAR0i0b38XuotkVXlZ-fFl4mQM23wZhk3n7VsWre_AyFOkrcYpHCiI9ReV-E,,,right,0,1.6885,0,19,19,56,1,5000,0,35000,150
,,,,,,,,,,,,,,,,,,,,,,,002,155,2022-03-28_21h34.13.801,tareaTDv3,2020.2.5,Win32,60,IwAR0i0b38XuotkVXlZ-fFl4mQM23wZhk3n7VsWre_AyFOkrcYpHCiI9ReV-E,,,left,1,4.6882,0,20,20,66,1,25000,0,55000,11
,,,,,,,,,,,,,,,,,,,,,,,002,155,2022-03-28_21h34.13.801,tareaTDv3,2020.2.5,Win32,60,IwAR0i0b38XuotkVXlZ-fFl4mQM23wZhk3n7VsWre_AyFOkrcYpHCiI9ReV-E,,,right,1,6.9445,0,21,21,8,1,10000,0,111000,10
,,,,,,,,,,,,,,,,,,,,,,,002,155,2022-03-28_21h34.13.801,tareaTDv3,2020.2.5,Win32,60,IwAR0i0b38XuotkVXlZ-fFl4mQM23wZhk3n7VsWre_AyFOkrcYpHCiI9ReV-E,,,left,0,1.6329,0,22,22,87,1,25000,0,75000,151
,,,,,,,,,,,,,,,,,,,,,,,002,155,2022-03-28_21h34.13.801,tareaTDv3,2020.2.5,Win32,60,IwAR0i0b38XuotkVXlZ-fFl4mQM23wZhk3n7VsWre_AyFOkrcYpHCiI9ReV-E,,,right,1,3.0485,0,23,23,18,1,10000,0,110000,60
,,,,,,,,,,,,,,,,,,,,,,,002,155,2022-03-28_21h34.13.801,tareaTDv3,2020.2.5,Win32,60,IwAR0i0b38XuotkVXlZ-fFl4mQM23wZhk3n7VsWre_AyFOkrcYpHCiI9ReV-E,,,right,1,2.463,0,24,24,39,1,5000,0,149000,10
,,,,,,,,,,,,,,,,,,,,,,,002,155,2022-03-28_21h34.13.801,tareaTDv3,2020.2.5,Win32,60,IwAR0i0b38XuotkVXlZ-fFl4mQM23wZhk3n7VsWre_AyFOkrcYpHCiI9ReV-E,,,right,1,0.9095,0,25,25,72,1,25000,0,75000,31
,,,,,,,,,,,,,,,,,,,,,,,002,155,2022-03-28_21h34.13.801,tareaTDv3,2020.2.5,Win32,60,IwAR0i0b38XuotkVXlZ-fFl4mQM23wZhk3n7VsWre_AyFOkrcYpHCiI9ReV-E,,,right,0,0.9643,0,26,26,83,1,25000,0,125000,89
,,,,,,,,,,,,,,,,,,,,,,,002,155,2022-03-28_21h34.13.801,tareaTDv3,2020.2.5,Win32,60,IwAR0i0b38XuotkVXlZ-fFl4mQM23wZhk3n7VsWre_AyFOkrcYpHCiI9ReV-E,,,left,0,3.4653,0,27,27,35,1,5000,0,15000,11
,,,,,,,,,,,,,,,,,,,,,,,002,155,2022-03-28_21h34.13.801,tareaTDv3,2020.2.5,Win32,60,IwAR0i0b38XuotkVXlZ-fFl4mQM23wZhk3n7VsWre_AyFOkrcYpHCiI9ReV-E,,,left,0,1.3386,0,28,28,88,1,25000,0,125000,149
,,,,,,,,,,,,,,,,,,,,,,,002,155,2022-03-28_21h34.13.801,tareaTDv3,2020.2.5,Win32,60,IwAR0i0b38XuotkVXlZ-fFl4mQM23wZhk3n7VsWre_AyFOkrcYpHCiI9ReV-E,,,left,1,1.3997,0,29,29,1,1,10000,0,39000,6
,,,,,,,,,,,,,,,,,,,,,,,002,155,2022-03-28_21h34.13.801,tareaTDv3,2020.2.5,Win32,60,IwAR0i0b38XuotkVXlZ-fFl4mQM23wZhk3n7VsWre_AyFOkrcYpHCiI9ReV-E,,,right,0,2.0527,0,30,30,51,1,5000,0,35000,89
,,,,,,,,,,,,,,,,,,,,,,,002,155,2022-03-28_21h34.13.801,tareaTDv3,2020.2.5,Win32,60,IwAR0i0b38XuotkVXlZ-fFl4mQM23wZhk3n7VsWre_AyFOkrcYpHCiI9ReV-E,,,right,1,1.6781,0,31,31,9,1,10000,0,151000,11
,,,,,,,,,,,,,,,,,,,,,,,002,155,2022-03-28_21h34.13.801,tareaTDv3,2020.2.5,Win32,60,IwAR0i0b38XuotkVXlZ-fFl4mQM23wZhk3n7VsWre_AyFOkrcYpHCiI9ReV-E,,,left,1,1.145,0,32,32,73,1,25000,0,125000,31
,,,,,,,,,,,,,,,,,,,,,,,002,155,2022-03-28_21h34.13.801,tareaTDv3,2020.2.5,Win32,60,IwAR0i0b38XuotkVXlZ-fFl4mQM23wZhk3n7VsWre_AyFOkrcYpHCiI9ReV-E,,,right,0,1.7372,0,33,33,78,1,25000,0,125000,59
,,,,,,,,,,,,,,,,,,,,,,,002,155,2022-03-28_21h34.13.801,tareaTDv3,2020.2.5,Win32,60,IwAR0i0b38XuotkVXlZ-fFl4mQM23wZhk3n7VsWre_AyFOkrcYpHCiI9ReV-E,,,right,1,2.2405,0,34,34,36,1,5000,0,36000,9
,,,,,,,,,,,,,,,,,,,,,,,002,155,2022-03-28_21h34.13.801,tareaTDv3,2020.2.5,Win32,60,IwAR0i0b38XuotkVXlZ-fFl4mQM23wZhk3n7VsWre_AyFOkrcYpHCiI9ReV-E,,,left,0,3.2361,0,35,35,5,1,10000,0,19000,11
,,,,,,,,,,,,,,,,,,,,,,,002,155,2022-03-28_21h34.13.801,tareaTDv3,2020.2.5,Win32,60,IwAR0i0b38XuotkVXlZ-fFl4mQM23wZhk3n7VsWre_AyFOkrcYpHCiI9ReV-E,,,left,1,3.1292,0,36,36,3,1,10000,0,109000,5
,,,,,,,,,,,,,,,,,,,,,,,002,155,2022-03-28_21h34.13.801,tareaTDv3,2020.2.5,Win32,60,IwAR0i0b38XuotkVXlZ-fFl4mQM23wZhk3n7VsWre_AyFOkrcYpHCiI9ReV-E,,,left,1,2.0017,0,37,37,37,1,5000,0,56000,9
,,,,,,,,,,,,,,,,,,,,,,,002,155,2022-03-28_21h34.13.801,tareaTDv3,2020.2.5,Win32,60,IwAR0i0b38XuotkVXlZ-fFl4mQM23wZhk3n7VsWre_AyFOkrcYpHCiI9ReV-E,,,right,0,1.4967,0,38,38,20,1,10000,0,20000,90
,,,,,,,,,,,,,,,,,,,,,,,002,155,2022-03-28_21h34.13.801,tareaTDv3,2020.2.5,Win32,60,IwAR0i0b38XuotkVXlZ-fFl4mQM23wZhk3n7VsWre_AyFOkrcYpHCiI9ReV-E,,,left,0,1.9397,0,39,39,43,1,5000,0,106000,29
,,,,,,,,,,,,,,,,,,,,,,,002,155,2022-03-28_21h34.13.801,tareaTDv3,2020.2.5,Win32,60,IwAR0i0b38XuotkVXlZ-fFl4mQM23wZhk3n7VsWre_AyFOkrcYpHCiI9ReV-E,,,right,0,3.3649,0,40,40,55,1,5000,0,14000,149
,,,,,,,,,,,,,,,,,,,,,,,002,155,2022-03-28_21h34.13.801,tareaTDv3,2020.2.5,Win32,60,IwAR0i0b38XuotkVXlZ-fFl4mQM23wZhk3n7VsWre_AyFOkrcYpHCiI9ReV-E,,,right,0,1.2716,0,41,41,50,1,5000,0,15000,91
,,,,,,,,,,,,,,,,,,,,,,,002,155,2022-03-28_21h34.13.801,tareaTDv3,2020.2.5,Win32,60,IwAR0i0b38XuotkVXlZ-fFl4mQM23wZhk3n7VsWre_AyFOkrcYpHCiI9ReV-E,,,right,1,1.4925,0,42,42,42,1,5000,0,56000,29
,,,,,,,,,,,,,,,,,,,,,,,002,155,2022-03-28_21h34.13.801,tareaTDv3,2020.2.5,Win32,60,IwAR0i0b38XuotkVXlZ-fFl4mQM23wZhk3n7VsWre_AyFOkrcYpHCiI9ReV-E,,,right,1,2.6981,0,43,43,67,1,25000,0,75000,10
,,,,,,,,,,,,,,,,,,,,,,,002,155,2022-03-28_21h34.13.801,tareaTDv3,2020.2.5,Win32,60,IwAR0i0b38XuotkVXlZ-fFl4mQM23wZhk3n7VsWre_AyFOkrcYpHCiI9ReV-E,,,left,0,2.4668,0,44,44,65,1,25000,0,35000,11
,,,,,,,,,,,,,,,,,,,,,,,002,155,2022-03-28_21h34.13.801,tareaTDv3,2020.2.5,Win32,60,IwAR0i0b38XuotkVXlZ-fFl4mQM23wZhk3n7VsWre_AyFOkrcYpHCiI9ReV-E,,,right,1,6.7552,0,45,45,32,1,5000,0,54000,5
,,,,,,,,,,,,,,,,,,,,,,,002,155,2022-03-28_21h34.13.801,tareaTDv3,2020.2.5,Win32,60,IwAR0i0b38XuotkVXlZ-fFl4mQM23wZhk3n7VsWre_AyFOkrcYpHCiI9ReV-E,,,left,0,1.9607,0,46,46,80,1,25000,0,35000,90
,,,,,,,,,,,,,,,,,,,,,,,002,155,2022-03-28_21h34.13.801,tareaTDv3,2020.2.5,Win32,60,IwAR0i0b38XuotkVXlZ-fFl4mQM23wZhk3n7VsWre_AyFOkrcYpHCiI9ReV-E,,,right,0,1.6913,0,47,47,85,1,25000,0,35000,150
,,,,,,,,,,,,,,,,,,,,,,,002,155,2022-03-28_21h34.13.801,tareaTDv3,2020.2.5,Win32,60,IwAR0i0b38XuotkVXlZ-fFl4mQM23wZhk3n7VsWre_AyFOkrcYpHCiI9ReV-E,,,right,0,2.0547,0,48,48,22,1,10000,0,61000,89
,,,,,,,,,,,,,,,,,,,,,,,002,155,2022-03-28_21h34.13.801,tareaTDv3,2020.2.5,Win32,60,IwAR0i0b38XuotkVXlZ-fFl4mQM23wZhk3n7VsWre_AyFOkrcYpHCiI9ReV-E,,,right,0,3.4983,0,49,49,25,1,10000,0,10000,150
,,,,,,,,,,,,,,,,,,,,,,,002,155,2022-03-28_21h34.13.801,tareaTDv3,2020.2.5,Win32,60,IwAR0i0b38XuotkVXlZ-fFl4mQM23wZhk3n7VsWre_AyFOkrcYpHCiI9ReV-E,,,left,0,3.2164,0,50,50,11,1,10000,0,39000,29
,,,,,,,,,,,,,,,,,,,,,,,002,155,2022-03-28_21h34.13.801,tareaTDv3,2020.2.5,Win32,60,IwAR0i0b38XuotkVXlZ-fFl4mQM23wZhk3n7VsWre_AyFOkrcYpHCiI9ReV-E,,,right,1,1.2092,0,51,51,44,1,5000,0,150000,30
,,,,,,,,,,,,,,,,,,,,,,,002,155,2022-03-28_21h34.13.801,tareaTDv3,2020.2.5,Win32,60,IwAR0i0b38XuotkVXlZ-fFl4mQM23wZhk3n7VsWre_AyFOkrcYpHCiI9ReV-E,,,right,0,1.9762,0,52,52,86,1,25000,0,55000,151
,,,,,,,,,,,,,,,,,,,,,,,002,155,2022-03-28_21h34.13.801,tareaTDv3,2020.2.5,Win32,60,IwAR0i0b38XuotkVXlZ-fFl4mQM23wZhk3n7VsWre_AyFOkrcYpHCiI9ReV-E,,,right,1,2.42,0,53,53,74,1,25000,0,150000,29
,,,,,,,,,,,,,,,,,,,,,,,002,155,2022-03-28_21h34.13.801,tareaTDv3,2020.2.5,Win32,60,IwAR0i0b38XuotkVXlZ-fFl4mQM23wZhk3n7VsWre_AyFOkrcYpHCiI9ReV-E,,,left,1,1.1389,0,54,54,77,1,25000,0,75000,59
,,,,,,,,,,,,,,,,,,,,,,,002,155,2022-03-28_21h34.13.801,tareaTDv3,2020.2.5,Win32,60,IwAR0i0b38XuotkVXlZ-fFl4mQM23wZhk3n7VsWre_AyFOkrcYpHCiI9ReV-E,,,right,0,2.5744,0,55,55,15,1,10000,0,20000,59
,,,,,,,,,,,,,,,,,,,,,,,002,155,2022-03-28_21h34.13.801,tareaTDv3,2020.2.5,Win32,60,IwAR0i0b38XuotkVXlZ-fFl4mQM23wZhk3n7VsWre_AyFOkrcYpHCiI9ReV-E,,,left,1,1.583,0,56,56,6,1,10000,0,40000,10
,,,,,,,,,,,,,,,,,,,,,,,002,155,2022-03-28_21h34.13.801,tareaTDv3,2020.2.5,Win32,60,IwAR0i0b38XuotkVXlZ-fFl4mQM23wZhk3n7VsWre_AyFOkrcYpHCiI9ReV-E,,,right,1,1.3496,0,57,57,61,1,25000,0,55000,6
,,,,,,,,,,,,,,,,,,,,,,,002,155,2022-03-28_21h34.13.801,tareaTDv3,2020.2.5,Win32,60,IwAR0i0b38XuotkVXlZ-fFl4mQM23wZhk3n7VsWre_AyFOkrcYpHCiI9ReV-E,,,left,0,2.7924,0,58,58,47,1,5000,0,56000,60
,,,,,,,,,,,,,,,,,,,,,,,002,155,2022-03-28_21h34.13.801,tareaTDv3,2020.2.5,Win32,60,IwAR0i0b38XuotkVXlZ-fFl4mQM23wZhk3n7VsWre_AyFOkrcYpHCiI9ReV-E,,,left,0,1.946,0,59,59,75,1,25000,0,35000,60
,,,,,,,,,,,,,,,,,,,,,,,002,155,2022-03-28_21h34.13.801,tareaTDv3,2020.2.5,Win32,60,IwAR0i0b38XuotkVXlZ-fFl4mQM23wZhk3n7VsWre_AyFOkrcYpHCiI9ReV-E,,,right,1,0.9372,0,60,60,16,1,10000,0,39000,59
,,,,,,,,,,,,,,,,,,,,,,,002,155,2022-03-28_21h34.13.801,tareaTDv3,2020.2.5,Win32,60,IwAR0i0b38XuotkVXlZ-fFl4mQM23wZhk3n7VsWre_AyFOkrcYpHCiI9ReV-E,,,left,1,1.0938,0,61,61,63,1,25000,0,125000,4
,,,,,,,,,,,,,,,,,,,,,,,002,155,2022-03-28_21h34.13.801,tareaTDv3,2020.2.5,Win32,60,IwAR0i0b38XuotkVXlZ-fFl4mQM23wZhk3n7VsWre_AyFOkrcYpHCiI9ReV-E,,,left,0,1.4201,0,62,62,57,1,5000,0,55000,151
,,,,,,,,,,,,,,,,,,,,,,,002,155,2022-03-28_21h34.13.801,tareaTDv3,2020.2.5,Win32,60,IwAR0i0b38XuotkVXlZ-fFl4mQM23wZhk3n7VsWre_AyFOkrcYpHCiI9ReV-E,,,left,1,1.1434,0,63,63,62,1,25000,0,75000,5
,,,,,,,,,,,,,,,,,,,,,,,002,155,2022-03-28_21h34.13.801,tareaTDv3,2020.2.5,Win32,60,IwAR0i0b38XuotkVXlZ-fFl4mQM23wZhk3n7VsWre_AyFOkrcYpHCiI9ReV-E,,,right,0,0.9017,0,64,64,21,1,10000,0,40000,91
,,,,,,,,,,,,,,,,,,,,,,,002,155,2022-03-28_21h34.13.801,tareaTDv3,2020.2.5,Win32,60,IwAR0i0b38XuotkVXlZ-fFl4mQM23wZhk3n7VsWre_AyFOkrcYpHCiI9ReV-E,,,right,0,1.8489,0,65,65,52,1,5000,0,56000,89
,,,,,,,,,,,,,,,,,,,,,,,002,155,2022-03-28_21h34.13.801,tareaTDv3,2020.2.5,Win32,60,IwAR0i0b38XuotkVXlZ-fFl4mQM23wZhk3n7VsWre_AyFOkrcYpHCiI9ReV-E,,,right,1,1.4045,0,66,66,0,1,10000,0,20000,5
,,,,,,,,,,,,,,,,,,,,,,,002,155,2022-03-28_21h34.13.801,tareaTDv3,2020.2.5,Win32,60,IwAR0i0b38XuotkVXlZ-fFl4mQM23wZhk3n7VsWre_AyFOkrcYpHCiI9ReV-E,,,left,1,1.1912,0,67,67,31,1,5000,0,35000,6
,,,,,,,,,,,,,,,,,,,,,,,002,155,2022-03-28_21h34.13.801,tareaTDv3,2020.2.5,Win32,60,IwAR0i0b38XuotkVXlZ-fFl4mQM23wZhk3n7VsWre_AyFOkrcYpHCiI9ReV-E,,,left,0,2.1386,0,68,68,24,1,10000,0,149000,89
,,,,,,,,,,,,,,,,,,,,,,,002,155,2022-03-28_21h34.13.801,tareaTDv3,2020.2.5,Win32,60,IwAR0i0b38XuotkVXlZ-fFl4mQM23wZhk3n7VsWre_AyFOkrcYpHCiI9ReV-E,,,left,0,3.2057,0,69,69,12,1,10000,0,60000,29
,,,,,,,,,,,,,,,,,,,,,,,002,155,2022-03-28_21h34.13.801,tareaTDv3,2020.2.5,Win32,60,IwAR0i0b38XuotkVXlZ-fFl4mQM23wZhk3n7VsWre_AyFOkrcYpHCiI9ReV-E,,,left,1,2.7714,0,70,70,14,1,10000,0,150000,30
,,,,,,,,,,,,,,,,,,,,,,,002,155,2022-03-28_21h34.13.801,tareaTDv3,2020.2.5,Win32,60,IwAR0i0b38XuotkVXlZ-fFl4mQM23wZhk3n7VsWre_AyFOkrcYpHCiI9ReV-E,,,right,1,7.0442,0,71,71,34,1,5000,0,151000,4
,,,,,,,,,,,,,,,,,,,,,,,002,155,2022-03-28_21h34.13.801,tareaTDv3,2020.2.5,Win32,60,IwAR0i0b38XuotkVXlZ-fFl4mQM23wZhk3n7VsWre_AyFOkrcYpHCiI9ReV-E,,,left,1,1.8416,0,72,72,17,1,10000,0,60000,60
,,,,,,,,,,,,,,,,,,,,,,,002,155,2022-03-28_21h34.13.801,tareaTDv3,2020.2.5,Win32,60,IwAR0i0b38XuotkVXlZ-fFl4mQM23wZhk3n7VsWre_AyFOkrcYpHCiI9ReV-E,,,right,0,2.0649,0,73,73,84,1,25000,0,150000,89
,,,,,,,,,,,,,,,,,,,,,,,002,155,2022-03-28_21h34.13.801,tareaTDv3,2020.2.5,Win32,60,IwAR0i0b38XuotkVXlZ-fFl4mQM23wZhk3n7VsWre_AyFOkrcYpHCiI9ReV-E,,,left,0,2.1197,0,74,74,28,1,10000,0,109000,149
,,,,,,,,,,,,,,,,,,,,,,,002,155,2022-03-28_21h34.13.801,tareaTDv3,2020.2.5,Win32,60,IwAR0i0b38XuotkVXlZ-fFl4mQM23wZhk3n7VsWre_AyFOkrcYpHCiI9ReV-E,,,right,0,1.4708,0,75,75,33,1,5000,0,104000,5
,,,,,,,,,,,,,,,,,,,,,,,002,155,2022-03-28_21h34.13.801,tareaTDv3,2020.2.5,Win32,60,IwAR0i0b38XuotkVXlZ-fFl4mQM23wZhk3n7VsWre_AyFOkrcYpHCiI9ReV-E,,,right,1,1.857,0,76,76,30,1,5000,0,16000,4
,,,,,,,,,,,,,,,,,,,,,,,002,155,2022-03-28_21h34.13.801,tareaTDv3,2020.2.5,Win32,60,IwAR0i0b38XuotkVXlZ-fFl4mQM23wZhk3n7VsWre_AyFOkrcYpHCiI9ReV-E,,,right,0,2.0586,0,77,77,81,1,25000,0,55000,90
,,,,,,,,,,,,,,,,,,,,,,,002,155,2022-03-28_21h34.13.801,tareaTDv3,2020.2.5,Win32,60,IwAR0i0b38XuotkVXlZ-fFl4mQM23wZhk3n7VsWre_AyFOkrcYpHCiI9ReV-E,,,right,0,1.9997,0,78,78,29,1,10000,0,151000,151
,,,,,,,,,,,,,,,,,,,,,,,002,155,2022-03-28_21h34.13.801,tareaTDv3,2020.2.5,Win32,60,IwAR0i0b38XuotkVXlZ-fFl4mQM23wZhk3n7VsWre_AyFOkrcYpHCiI9ReV-E,,,right,0,2.0492,0,79,79,76,1,25000,0,55000,60
,,,,,,,,,,,,,,,,,,,,,,,002,155,2022-03-28_21h34.13.801,tareaTDv3,2020.2.5,Win32,60,IwAR0i0b38XuotkVXlZ-fFl4mQM23wZhk3n7VsWre_AyFOkrcYpHCiI9ReV-E,,,right,1,0.9516,0,80,80,4,1,10000,0,150000,5
,,,,,,,,,,,,,,,,,,,,,,,002,155,2022-03-28_21h34.13.801,tareaTDv3,2020.2.5,Win32,60,IwAR0i0b38XuotkVXlZ-fFl4mQM23wZhk3n7VsWre_AyFOkrcYpHCiI9ReV-E,,,right,0,1.7921,0,81,81,58,1,5000,0,106000,152
,,,,,,,,,,,,,,,,,,,,,,,002,155,2022-03-28_21h34.13.801,tareaTDv3,2020.2.5,Win32,60,IwAR0i0b38XuotkVXlZ-fFl4mQM23wZhk3n7VsWre_AyFOkrcYpHCiI9ReV-E,,,right,1,2.0698,0,82,82,2,1,10000,0,61000,4
,,,,,,,,,,,,,,,,,,,,,,,002,155,2022-03-28_21h34.13.801,tareaTDv3,2020.2.5,Win32,60,IwAR0i0b38XuotkVXlZ-fFl4mQM23wZhk3n7VsWre_AyFOkrcYpHCiI9ReV-E,,,left,0,1.3474,0,83,83,48,1,5000,0,105000,60
,,,,,,,,,,,,,,,,,,,,,,,002,155,2022-03-28_21h34.13.801,tareaTDv3,2020.2.5,Win32,60,IwAR0i0b38XuotkVXlZ-fFl4mQM23wZhk3n7VsWre_AyFOkrcYpHCiI9ReV-E,,,right,1,1.031,0,84,84,7,1,10000,0,59000,9
,,,,,,,,,,,,,,,,,,,,,,,002,155,2022-03-28_21h34.13.801,tareaTDv3,2020.2.5,Win32,60,IwAR0i0b38XuotkVXlZ-fFl4mQM23wZhk3n7VsWre_AyFOkrcYpHCiI9ReV-E,,,left,1,1.1806,0,85,85,13,1,10000,0,111000,30
,,,,,,,,,,,,,,,,,,,,,,,002,155,2022-03-28_21h34.13.801,tareaTDv3,2020.2.5,Win32,60,IwAR0i0b38XuotkVXlZ-fFl4mQM23wZhk3n7VsWre_AyFOkrcYpHCiI9ReV-E,,,right,1,0.6534,0,86,86,27,1,10000,0,61000,150
,,,,,,,,,,,,,,,,,,,,,,,002,155,2022-03-28_21h34.13.801,tareaTDv3,2020.2.5,Win32,60,IwAR0i0b38XuotkVXlZ-fFl4mQM23wZhk3n7VsWre_AyFOkrcYpHCiI9ReV-E,,,left,0,1.5962,0,87,87,19,1,10000,0,149000,61
,,,,,,,,,,,,,,,,,,,,,,,002,155,2022-03-28_21h34.13.801,tareaTDv3,2020.2.5,Win32,60,IwAR0i0b38XuotkVXlZ-fFl4mQM23wZhk3n7VsWre_AyFOkrcYpHCiI9ReV-E,,,right,1,2.0654,0,88,88,41,1,5000,0,35000,31
,,,,,,,,,,,,,,,,,,,,,,,002,155,2022-03-28_21h34.13.801,tareaTDv3,2020.2.5,Win32,60,IwAR0i0b38XuotkVXlZ-fFl4mQM23wZhk3n7VsWre_AyFOkrcYpHCiI9ReV-E,,,right,0,3.2225,0,89,89,59,1,5000,0,151000,150
