key1.keys,key1.rt,key2.keys,key2.rt,key2_2.keys,key2_2.rt,key2_3.keys,key2_3.rt,key3.keys,key3.rt,key4.keys,key4.rt,respP.keys,respP.corr,respP.rt,Practice.thisRepN,Practice.thisTrialN,Practice.thisN,Practice.thisIndex,Practice.ran,ssAmount,llAmount,llDelay,session,participant,date,expName,psychopyVersion,OS,frameRate,key5.keys,key5.rt,respT.keys,respT.corr,respT.rt,trials.thisRepN,trials.thisTrialN,trials.thisN,trials.thisIndex,trials.ran,ss_Amt,ss_Delay,ll_Amt,ll_Delay,key_resp_4.keys,key_resp_4.rt
space,0.3135,space,0.0386,space,0.0867,space,0.8302,right,0.7347,space,0.6481,right,0,0.2358,0,0,0,1,1,25000,35000,150,002,16,2022-03-28_17h48.38.557,tareaTDv3,2020.2.5,MacIntel,60,,,,,,,,,,,,,,,,
,,,,,,,,,,,,right,1,0.1728,0,1,1,2,1,10000,19000,89,002,16,2022-03-28_17h48.38.557,tareaTDv3,2020.2.5,MacIntel,60,,,,,,,,,,,,,,,,
,,,,,,,,,,,,left,0,3.0757,0,2,2,0,1,10000,109000,9,002,16,2022-03-28_17h48.38.557,tareaTDv3,2020.2.5,MacIntel,60,,,,,,,,,,,,,,,,
,,,,,,,,,,,,,,,,,,,,,,,002,16,2022-03-28_17h48.38.557,tareaTDv3,2020.2.5,MacIntel,60,g,1.8751,right,1,1.5838,0,0,0,31,1,5000,0,35000,6,,
,,,,,,,,,,,,,,,,,,,,,,,002,16,2022-03-28_17h48.38.557,tareaTDv3,2020.2.5,MacIntel,60,,,right,1,2.2362,0,1,1,7,1,10000,0,59000,9,,
,,,,,,,,,,,,,,,,,,,,,,,002,16,2022-03-28_17h48.38.557,tareaTDv3,2020.2.5,MacIntel,60,,,left,1,1.459,0,2,2,49,1,5000,0,149000,59,,
,,,,,,,,,,,,,,,,,,,,,,,002,16,2022-03-28_17h48.38.557,tareaTDv3,2020.2.5,MacIntel,60,,,right,1,2.5709,0,3,3,34,1,5000,0,151000,4,,
,,,,,,,,,,,,,,,,,,,,,,,002,16,2022-03-28_17h48.38.557,tareaTDv3,2020.2.5,MacIntel,60,,,left,1,1.8116,0,4,4,82,1,25000,0,75000,90,,
,,,,,,,,,,,,,,,,,,,,,,,002,16,2022-03-28_17h48.38.557,tareaTDv3,2020.2.5,MacIntel,60,,,right,1,3.8079,0,5,5,4,1,10000,0,150000,5,,
,,,,,,,,,,,,,,,,,,,,,,,002,16,2022-03-28_17h48.38.557,tareaTDv3,2020.2.5,MacIntel,60,,,right,1,0.9279,0,6,6,9,1,10000,0,151000,11,,
,,,,,,,,,,,,,,,,,,,,,,,002,16,2022-03-28_17h48.38.557,tareaTDv3,2020.2.5,MacIntel,60,,,left,1,2.2456,0,7,7,12,1,10000,0,60000,29,,
,,,,,,,,,,,,,,,,,,,,,,,002,16,2022-03-28_17h48.38.557,tareaTDv3,2020.2.5,MacIntel,60,,,left,1,1.6462,0,8,8,75,1,25000,0,35000,60,,
,,,,,,,,,,,,,,,,,,,,,,,002,16,2022-03-28_17h48.38.557,tareaTDv3,2020.2.5,MacIntel,60,,,right,1,3.0898,0,9,9,84,1,25000,0,150000,89,,
,,,,,,,,,,,,,,,,,,,,,,,002,16,2022-03-28_17h48.38.557,tareaTDv3,2020.2.5,MacIntel,60,,,left,1,1.2856,0,10,10,26,1,10000,0,39000,150,,
,,,,,,,,,,,,,,,,,,,,,,,002,16,2022-03-28_17h48.38.557,tareaTDv3,2020.2.5,MacIntel,60,,,right,1,3.729,0,11,11,74,1,25000,0,150000,29,,
,,,,,,,,,,,,,,,,,,,,,,,002,16,2022-03-28_17h48.38.557,tareaTDv3,2020.2.5,MacIntel,60,,,right,1,3.554,0,12,12,48,1,5000,0,105000,60,,
,,,,,,,,,,,,,,,,,,,,,,,002,16,2022-03-28_17h48.38.557,tareaTDv3,2020.2.5,MacIntel,60,,,left,1,2.7449,0,13,13,79,1,25000,0,150000,61,,
,,,,,,,,,,,,,,,,,,,,,,,002,16,2022-03-28_17h48.38.557,tareaTDv3,2020.2.5,MacIntel,60,,,right,1,2.4716,0,14,14,22,1,10000,0,61000,89,,
,,,,,,,,,,,,,,,,,,,,,,,002,16,2022-03-28_17h48.38.557,tareaTDv3,2020.2.5,MacIntel,60,,,right,1,0.7437,0,15,15,89,1,25000,0,150000,150,,
,,,,,,,,,,,,,,,,,,,,,,,002,16,2022-03-28_17h48.38.557,tareaTDv3,2020.2.5,MacIntel,60,,,left,1,2.3601,0,16,16,71,1,25000,0,55000,30,,
,,,,,,,,,,,,,,,,,,,,,,,002,16,2022-03-28_17h48.38.557,tareaTDv3,2020.2.5,MacIntel,60,,,left,1,0.9857,0,17,17,19,1,10000,0,149000,61,,
,,,,,,,,,,,,,,,,,,,,,,,002,16,2022-03-28_17h48.38.557,tareaTDv3,2020.2.5,MacIntel,60,,,right,1,0.9522,0,18,18,63,1,25000,0,125000,4,,
,,,,,,,,,,,,,,,,,,,,,,,002,16,2022-03-28_17h48.38.557,tareaTDv3,2020.2.5,MacIntel,60,,,right,1,0.6232,0,19,19,81,1,25000,0,55000,90,,
,,,,,,,,,,,,,,,,,,,,,,,002,16,2022-03-28_17h48.38.557,tareaTDv3,2020.2.5,MacIntel,60,,,right,1,1.1506,0,20,20,44,1,5000,0,150000,30,,
,,,,,,,,,,,,,,,,,,,,,,,002,16,2022-03-28_17h48.38.557,tareaTDv3,2020.2.5,MacIntel,60,,,right,0,3.3037,0,21,21,45,1,5000,0,15000,61,,
,,,,,,,,,,,,,,,,,,,,,,,002,16,2022-03-28_17h48.38.557,tareaTDv3,2020.2.5,MacIntel,60,,,left,1,0.7766,0,22,22,41,1,5000,0,35000,31,,
,,,,,,,,,,,,,,,,,,,,,,,002,16,2022-03-28_17h48.38.557,tareaTDv3,2020.2.5,MacIntel,60,,,right,1,1.753,0,23,23,32,1,5000,0,54000,5,,
,,,,,,,,,,,,,,,,,,,,,,,002,16,2022-03-28_17h48.38.557,tareaTDv3,2020.2.5,MacIntel,60,,,right,1,0.5534,0,24,24,69,1,25000,0,150000,9,,
,,,,,,,,,,,,,,,,,,,,,,,002,16,2022-03-28_17h48.38.557,tareaTDv3,2020.2.5,MacIntel,60,,,left,1,1.6922,0,25,25,0,1,10000,0,20000,5,,
,,,,,,,,,,,,,,,,,,,,,,,002,16,2022-03-28_17h48.38.557,tareaTDv3,2020.2.5,MacIntel,60,,,right,1,0.495,0,26,26,39,1,5000,0,149000,10,,
,,,,,,,,,,,,,,,,,,,,,,,002,16,2022-03-28_17h48.38.557,tareaTDv3,2020.2.5,MacIntel,60,,,right,1,1.4512,0,27,27,40,1,5000,0,14000,31,,
,,,,,,,,,,,,,,,,,,,,,,,002,16,2022-03-28_17h48.38.557,tareaTDv3,2020.2.5,MacIntel,60,,,left,1,3.1471,0,28,28,51,1,5000,0,35000,89,,
,,,,,,,,,,,,,,,,,,,,,,,002,16,2022-03-28_17h48.38.557,tareaTDv3,2020.2.5,MacIntel,60,,,left,1,1.7017,0,29,29,67,1,25000,0,75000,10,,
,,,,,,,,,,,,,,,,,,,,,,,002,16,2022-03-28_17h48.38.557,tareaTDv3,2020.2.5,MacIntel,60,,,left,1,1.7184,0,30,30,43,1,5000,0,106000,29,,
,,,,,,,,,,,,,,,,,,,,,,,002,16,2022-03-28_17h48.38.557,tareaTDv3,2020.2.5,MacIntel,60,,,left,1,0.6029,0,31,31,16,1,10000,0,39000,59,,
,,,,,,,,,,,,,,,,,,,,,,,002,16,2022-03-28_17h48.38.557,tareaTDv3,2020.2.5,MacIntel,60,,,right,1,3.4619,0,32,32,35,1,5000,0,15000,11,,
,,,,,,,,,,,,,,,,,,,,,,,002,16,2022-03-28_17h48.38.557,tareaTDv3,2020.2.5,MacIntel,60,,,left,1,4.2592,0,33,33,68,1,25000,0,125000,9,,
,,,,,,,,,,,,,,,,,,,,,,,002,16,2022-03-28_17h48.38.557,tareaTDv3,2020.2.5,MacIntel,60,,,left,1,2.1394,0,34,34,72,1,25000,0,75000,31,,
,,,,,,,,,,,,,,,,,,,,,,,002,16,2022-03-28_17h48.38.557,tareaTDv3,2020.2.5,MacIntel,60,,,left,0,3.1034,0,35,35,86,1,25000,0,55000,151,,
,,,,,,,,,,,,,,,,,,,,,,,002,16,2022-03-28_17h48.38.557,tareaTDv3,2020.2.5,MacIntel,60,,,right,1,1.9962,0,36,36,47,1,5000,0,56000,60,,
,,,,,,,,,,,,,,,,,,,,,,,002,16,2022-03-28_17h48.38.557,tareaTDv3,2020.2.5,MacIntel,60,,,right,0,2.2718,0,37,37,6,1,10000,0,40000,10,,
,,,,,,,,,,,,,,,,,,,,,,,002,16,2022-03-28_17h48.38.557,tareaTDv3,2020.2.5,MacIntel,60,,,right,1,2.2574,0,38,38,66,1,25000,0,55000,11,,
,,,,,,,,,,,,,,,,,,,,,,,002,16,2022-03-28_17h48.38.557,tareaTDv3,2020.2.5,MacIntel,60,,,right,1,6.0161,0,39,39,3,1,10000,0,109000,5,,
,,,,,,,,,,,,,,,,,,,,,,,002,16,2022-03-28_17h48.38.557,tareaTDv3,2020.2.5,MacIntel,60,,,right,1,0.7234,0,40,40,78,1,25000,0,125000,59,,
,,,,,,,,,,,,,,,,,,,,,,,002,16,2022-03-28_17h48.38.557,tareaTDv3,2020.2.5,MacIntel,60,,,right,1,4.1192,0,41,41,57,1,5000,0,55000,151,,
,,,,,,,,,,,,,,,,,,,,,,,002,16,2022-03-28_17h48.38.557,tareaTDv3,2020.2.5,MacIntel,60,,,right,1,0.6937,0,42,42,27,1,10000,0,61000,150,,
,,,,,,,,,,,,,,,,,,,,,,,002,16,2022-03-28_17h48.38.557,tareaTDv3,2020.2.5,MacIntel,60,,,right,1,1.6258,0,43,43,29,1,10000,0,151000,151,,
,,,,,,,,,,,,,,,,,,,,,,,002,16,2022-03-28_17h48.38.557,tareaTDv3,2020.2.5,MacIntel,60,,,right,0,3.7886,0,44,44,80,1,25000,0,35000,90,,
,,,,,,,,,,,,,,,,,,,,,,,002,16,2022-03-28_17h48.38.557,tareaTDv3,2020.2.5,MacIntel,60,,,right,1,1.8095,0,45,45,25,1,10000,0,10000,150,,
,,,,,,,,,,,,,,,,,,,,,,,002,16,2022-03-28_17h48.38.557,tareaTDv3,2020.2.5,MacIntel,60,,,right,1,0.6485,0,46,46,28,1,10000,0,109000,149,,
,,,,,,,,,,,,,,,,,,,,,,,002,16,2022-03-28_17h48.38.557,tareaTDv3,2020.2.5,MacIntel,60,,,left,1,0.8143,0,47,47,60,1,25000,0,35000,5,,
,,,,,,,,,,,,,,,,,,,,,,,002,16,2022-03-28_17h48.38.557,tareaTDv3,2020.2.5,MacIntel,60,,,right,1,1.0224,0,48,48,14,1,10000,0,150000,30,,
,,,,,,,,,,,,,,,,,,,,,,,002,16,2022-03-28_17h48.38.557,tareaTDv3,2020.2.5,MacIntel,60,,,right,1,0.5647,0,49,49,85,1,25000,0,35000,150,,
,,,,,,,,,,,,,,,,,,,,,,,002,16,2022-03-28_17h48.38.557,tareaTDv3,2020.2.5,MacIntel,60,,,right,1,1.1343,0,50,50,42,1,5000,0,56000,29,,
,,,,,,,,,,,,,,,,,,,,,,,002,16,2022-03-28_17h48.38.557,tareaTDv3,2020.2.5,MacIntel,60,,,left,1,0.3725,0,51,51,53,1,5000,0,104000,90,,
,,,,,,,,,,,,,,,,,,,,,,,002,16,2022-03-28_17h48.38.557,tareaTDv3,2020.2.5,MacIntel,60,,,right,1,2.691,0,52,52,50,1,5000,0,15000,91,,
,,,,,,,,,,,,,,,,,,,,,,,002,16,2022-03-28_17h48.38.557,tareaTDv3,2020.2.5,MacIntel,60,,,right,1,0.5677,0,53,53,2,1,10000,0,61000,4,,
,,,,,,,,,,,,,,,,,,,,,,,002,16,2022-03-28_17h48.38.557,tareaTDv3,2020.2.5,MacIntel,60,,,right,1,1.0085,0,54,54,17,1,10000,0,60000,60,,
,,,,,,,,,,,,,,,,,,,,,,,002,16,2022-03-28_17h48.38.557,tareaTDv3,2020.2.5,MacIntel,60,,,right,1,0.3756,0,55,55,88,1,25000,0,125000,149,,
,,,,,,,,,,,,,,,,,,,,,,,002,16,2022-03-28_17h48.38.557,tareaTDv3,2020.2.5,MacIntel,60,,,right,1,0.6521,0,56,56,73,1,25000,0,125000,31,,
,,,,,,,,,,,,,,,,,,,,,,,002,16,2022-03-28_17h48.38.557,tareaTDv3,2020.2.5,MacIntel,60,,,right,1,0.4407,0,57,57,30,1,5000,0,16000,4,,
,,,,,,,,,,,,,,,,,,,,,,,002,16,2022-03-28_17h48.38.557,tareaTDv3,2020.2.5,MacIntel,60,,,right,1,0.7066,0,58,58,46,1,5000,0,36000,61,,
,,,,,,,,,,,,,,,,,,,,,,,002,16,2022-03-28_17h48.38.557,tareaTDv3,2020.2.5,MacIntel,60,,,right,1,0.3857,0,59,59,21,1,10000,0,40000,91,,
,,,,,,,,,,,,,,,,,,,,,,,002,16,2022-03-28_17h48.38.557,tareaTDv3,2020.2.5,MacIntel,60,,,right,1,0.4243,0,60,60,36,1,5000,0,36000,9,,
,,,,,,,,,,,,,,,,,,,,,,,002,16,2022-03-28_17h48.38.557,tareaTDv3,2020.2.5,MacIntel,60,,,left,1,1.1203,0,61,61,54,1,5000,0,150000,90,,
,,,,,,,,,,,,,,,,,,,,,,,002,16,2022-03-28_17h48.38.557,tareaTDv3,2020.2.5,MacIntel,60,,,left,1,1.5681,0,62,62,38,1,5000,0,104000,10,,
,,,,,,,,,,,,,,,,,,,,,,,002,16,2022-03-28_17h48.38.557,tareaTDv3,2020.2.5,MacIntel,60,,,left,1,1.39,0,63,63,55,1,5000,0,14000,149,,
,,,,,,,,,,,,,,,,,,,,,,,002,16,2022-03-28_17h48.38.557,tareaTDv3,2020.2.5,MacIntel,60,,,right,1,2.6379,0,64,64,77,1,25000,0,75000,59,,
,,,,,,,,,,,,,,,,,,,,,,,002,16,2022-03-28_17h48.38.557,tareaTDv3,2020.2.5,MacIntel,60,,,left,1,2.3064,0,65,65,15,1,10000,0,20000,59,,
,,,,,,,,,,,,,,,,,,,,,,,002,16,2022-03-28_17h48.38.557,tareaTDv3,2020.2.5,MacIntel,60,,,left,1,2.1268,0,66,66,62,1,25000,0,75000,5,,
,,,,,,,,,,,,,,,,,,,,,,,002,16,2022-03-28_17h48.38.557,tareaTDv3,2020.2.5,MacIntel,60,,,right,1,0.2465,0,67,67,58,1,5000,0,106000,152,,
,,,,,,,,,,,,,,,,,,,,,,,002,16,2022-03-28_17h48.38.557,tareaTDv3,2020.2.5,MacIntel,60,,,right,1,3.4226,0,68,68,18,1,10000,0,110000,60,,
,,,,,,,,,,,,,,,,,,,,,,,002,16,2022-03-28_17h48.38.557,tareaTDv3,2020.2.5,MacIntel,60,,,right,1,0.1782,0,69,69,61,1,25000,0,55000,6,,
,,,,,,,,,,,,,,,,,,,,,,,002,16,2022-03-28_17h48.38.557,tareaTDv3,2020.2.5,MacIntel,60,,,right,1,0.5262,0,70,70,64,1,25000,0,150000,4,,
,,,,,,,,,,,,,,,,,,,,,,,002,16,2022-03-28_17h48.38.557,tareaTDv3,2020.2.5,MacIntel,60,,,right,1,0.2411,0,71,71,56,1,5000,0,35000,150,,
,,,,,,,,,,,,,,,,,,,,,,,002,16,2022-03-28_17h48.38.557,tareaTDv3,2020.2.5,MacIntel,60,,,left,1,0.7402,0,72,72,8,1,10000,0,111000,10,,
,,,,,,,,,,,,,,,,,,,,,,,002,16,2022-03-28_17h48.38.557,tareaTDv3,2020.2.5,MacIntel,60,,,left,1,0.7049,0,73,73,1,1,10000,0,39000,6,,
,,,,,,,,,,,,,,,,,,,,,,,002,16,2022-03-28_17h48.38.557,tareaTDv3,2020.2.5,MacIntel,60,,,left,1,3.4527,0,74,74,87,1,25000,0,75000,151,,
,,,,,,,,,,,,,,,,,,,,,,,002,16,2022-03-28_17h48.38.557,tareaTDv3,2020.2.5,MacIntel,60,,,right,1,2.1483,0,75,75,65,1,25000,0,35000,11,,
,,,,,,,,,,,,,,,,,,,,,,,002,16,2022-03-28_17h48.38.557,tareaTDv3,2020.2.5,MacIntel,60,,,left,1,2.8623,0,76,76,24,1,10000,0,149000,89,,
,,,,,,,,,,,,,,,,,,,,,,,002,16,2022-03-28_17h48.38.557,tareaTDv3,2020.2.5,MacIntel,60,,,right,1,1.9757,0,77,77,76,1,25000,0,55000,60,,
,,,,,,,,,,,,,,,,,,,,,,,002,16,2022-03-28_17h48.38.557,tareaTDv3,2020.2.5,MacIntel,60,,,left,1,1.1222,0,78,78,37,1,5000,0,56000,9,,
,,,,,,,,,,,,,,,,,,,,,,,002,16,2022-03-28_17h48.38.557,tareaTDv3,2020.2.5,MacIntel,60,,,right,1,2.9899,0,79,79,52,1,5000,0,56000,89,,
,,,,,,,,,,,,,,,,,,,,,,,002,16,2022-03-28_17h48.38.557,tareaTDv3,2020.2.5,MacIntel,60,,,left,1,0.7666,0,80,80,5,1,10000,0,19000,11,,
,,,,,,,,,,,,,,,,,,,,,,,002,16,2022-03-28_17h48.38.557,tareaTDv3,2020.2.5,MacIntel,60,,,left,1,12.2311,0,81,81,59,1,5000,0,151000,150,,
,,,,,,,,,,,,,,,,,,,,,,,002,16,2022-03-28_17h48.38.557,tareaTDv3,2020.2.5,MacIntel,60,,,left,1,8.0918,0,82,82,33,1,5000,0,104000,5,,
,,,,,,,,,,,,,,,,,,,,,,,002,16,2022-03-28_17h48.38.557,tareaTDv3,2020.2.5,MacIntel,60,,,right,1,0.3904,0,83,83,10,1,10000,0,21000,31,,
,,,,,,,,,,,,,,,,,,,,,,,002,16,2022-03-28_17h48.38.557,tareaTDv3,2020.2.5,MacIntel,60,,,right,1,2.3278,0,84,84,20,1,10000,0,20000,90,,
,,,,,,,,,,,,,,,,,,,,,,,002,16,2022-03-28_17h48.38.557,tareaTDv3,2020.2.5,MacIntel,60,,,right,1,0.3746,0,85,85,23,1,10000,0,110000,90,,
,,,,,,,,,,,,,,,,,,,,,,,002,16,2022-03-28_17h48.38.557,tareaTDv3,2020.2.5,MacIntel,60,,,right,1,1.248,0,86,86,70,1,25000,0,35000,30,,
,,,,,,,,,,,,,,,,,,,,,,,002,16,2022-03-28_17h48.38.557,tareaTDv3,2020.2.5,MacIntel,60,,,left,1,0.822,0,87,87,13,1,10000,0,111000,30,,
,,,,,,,,,,,,,,,,,,,,,,,002,16,2022-03-28_17h48.38.557,tareaTDv3,2020.2.5,MacIntel,60,,,right,1,0.374,0,88,88,83,1,25000,0,125000,89,,
,,,,,,,,,,,,,,,,,,,,,,,002,16,2022-03-28_17h48.38.557,tareaTDv3,2020.2.5,MacIntel,60,,,left,1,6.2362,0,89,89,11,1,10000,0,39000,29,,
,,,,,,,,,,,,,,,,,,,,,,,002,16,2022-03-28_17h48.38.557,tareaTDv3,2020.2.5,MacIntel,60,,,,,,,,,,,,,,,space,1.6043
