key1.keys,key1.rt,key2.keys,key2.rt,key2_2.keys,key2_2.rt,key2_3.keys,key2_3.rt,key3.keys,key3.rt,key4.keys,key4.rt,respP.keys,respP.corr,respP.rt,Practice.thisRepN,Practice.thisTrialN,Practice.thisN,Practice.thisIndex,Practice.ran,ssAmount,llAmount,llDelay,session,participant,date,expName,psychopyVersion,OS,frameRate,key5.keys,key5.rt,respT.keys,respT.corr,trials.thisRepN,trials.thisTrialN,trials.thisN,trials.thisIndex,trials.ran,ss_Amt,ss_Delay,ll_Amt,ll_Delay,respT.rt
space,2.7358,space,0.9377,space,0.6431,space,3.1943,left,4.7849,space,1.4348,right,0,3.4772,0,0,0,2,1,10000,19000,89,002,600,2022-06-02_19h00.37.608,tareaTDv3,2020.2.5,Win32,60,,,,,,,,,,,,,,
,,,,,,,,,,,,right,0,7.2532,0,1,1,1,1,25000,35000,150,002,600,2022-06-02_19h00.37.608,tareaTDv3,2020.2.5,Win32,60,,,,,,,,,,,,,,
,,,,,,,,,,,,left,1,2.7524,0,2,2,0,1,10000,109000,9,002,600,2022-06-02_19h00.37.608,tareaTDv3,2020.2.5,Win32,60,,,,,,,,,,,,,,
,,,,,,,,,,,,,,,,,,,,,,,002,600,2022-06-02_19h00.37.608,tareaTDv3,2020.2.5,Win32,60,g,451.2738,,0,0,0,0,10,1,10000,0,21000,31,
,,,,,,,,,,,,,,,,,,,,,,,002,600,2022-06-02_19h00.37.608,tareaTDv3,2020.2.5,Win32,60,,,left,1,0,1,1,11,1,10000,0,39000,29,3.1775
,,,,,,,,,,,,,,,,,,,,,,,002,600,2022-06-02_19h00.37.608,tareaTDv3,2020.2.5,Win32,60,,,right,1,0,2,2,48,1,5000,0,105000,60,2.6171
,,,,,,,,,,,,,,,,,,,,,,,002,600,2022-06-02_19h00.37.608,tareaTDv3,2020.2.5,Win32,60,,,right,0,0,3,3,72,1,25000,0,75000,31,3.17
,,,,,,,,,,,,,,,,,,,,,,,002,600,2022-06-02_19h00.37.608,tareaTDv3,2020.2.5,Win32,60,,,left,1,0,4,4,30,1,5000,0,16000,4,3.4823
,,,,,,,,,,,,,,,,,,,,,,,002,600,2022-06-02_19h00.37.608,tareaTDv3,2020.2.5,Win32,60,,,right,1,0,5,5,53,1,5000,0,104000,90,2.621
,,,,,,,,,,,,,,,,,,,,,,,002,600,2022-06-02_19h00.37.608,tareaTDv3,2020.2.5,Win32,60,,,right,0,0,6,6,58,1,5000,0,106000,152,3.3358
,,,,,,,,,,,,,,,,,,,,,,,002,600,2022-06-02_19h00.37.608,tareaTDv3,2020.2.5,Win32,60,,,right,1,0,7,7,6,1,10000,0,40000,10,2.6039
,,,,,,,,,,,,,,,,,,,,,,,002,600,2022-06-02_19h00.37.608,tareaTDv3,2020.2.5,Win32,60,,,left,1,0,8,8,33,1,5000,0,104000,5,2.3177
,,,,,,,,,,,,,,,,,,,,,,,002,600,2022-06-02_19h00.37.608,tareaTDv3,2020.2.5,Win32,60,,,right,1,0,9,9,74,1,25000,0,150000,29,3.5508
,,,,,,,,,,,,,,,,,,,,,,,002,600,2022-06-02_19h00.37.608,tareaTDv3,2020.2.5,Win32,60,,,left,0,0,10,10,18,1,10000,0,110000,60,4.9837
,,,,,,,,,,,,,,,,,,,,,,,002,600,2022-06-02_19h00.37.608,tareaTDv3,2020.2.5,Win32,60,,,right,0,0,11,11,76,1,25000,0,55000,60,3.7842
,,,,,,,,,,,,,,,,,,,,,,,002,600,2022-06-02_19h00.37.608,tareaTDv3,2020.2.5,Win32,60,,,right,0,0,12,12,88,1,25000,0,125000,149,3.4933
,,,,,,,,,,,,,,,,,,,,,,,002,600,2022-06-02_19h00.37.608,tareaTDv3,2020.2.5,Win32,60,,,left,0,0,13,13,52,1,5000,0,56000,89,5.1169
,,,,,,,,,,,,,,,,,,,,,,,002,600,2022-06-02_19h00.37.608,tareaTDv3,2020.2.5,Win32,60,,,right,0,0,14,14,42,1,5000,0,56000,29,1.8237
,,,,,,,,,,,,,,,,,,,,,,,002,600,2022-06-02_19h00.37.608,tareaTDv3,2020.2.5,Win32,60,,,right,1,0,15,15,19,1,10000,0,149000,61,1.9689
,,,,,,,,,,,,,,,,,,,,,,,002,600,2022-06-02_19h00.37.608,tareaTDv3,2020.2.5,Win32,60,,,right,1,0,16,16,69,1,25000,0,150000,9,3.8764
,,,,,,,,,,,,,,,,,,,,,,,002,600,2022-06-02_19h00.37.608,tareaTDv3,2020.2.5,Win32,60,,,left,1,0,17,17,32,1,5000,0,54000,5,2.8237
,,,,,,,,,,,,,,,,,,,,,,,002,600,2022-06-02_19h00.37.608,tareaTDv3,2020.2.5,Win32,60,,,right,1,0,18,18,78,1,25000,0,125000,59,2.9357
,,,,,,,,,,,,,,,,,,,,,,,002,600,2022-06-02_19h00.37.608,tareaTDv3,2020.2.5,Win32,60,,,right,0,0,19,19,35,1,5000,0,15000,11,3.5523
,,,,,,,,,,,,,,,,,,,,,,,002,600,2022-06-02_19h00.37.608,tareaTDv3,2020.2.5,Win32,60,,,right,0,0,20,20,16,1,10000,0,39000,59,2.4761
,,,,,,,,,,,,,,,,,,,,,,,002,600,2022-06-02_19h00.37.608,tareaTDv3,2020.2.5,Win32,60,,,right,1,0,21,21,84,1,25000,0,150000,89,6.5008
,,,,,,,,,,,,,,,,,,,,,,,002,600,2022-06-02_19h00.37.608,tareaTDv3,2020.2.5,Win32,60,,,left,1,0,22,22,61,1,25000,0,55000,6,3.5559
,,,,,,,,,,,,,,,,,,,,,,,002,600,2022-06-02_19h00.37.608,tareaTDv3,2020.2.5,Win32,60,,,left,1,0,23,23,7,1,10000,0,59000,9,3.2356
,,,,,,,,,,,,,,,,,,,,,,,002,600,2022-06-02_19h00.37.608,tareaTDv3,2020.2.5,Win32,60,,,left,0,0,24,24,87,1,25000,0,75000,151,4.0991
,,,,,,,,,,,,,,,,,,,,,,,002,600,2022-06-02_19h00.37.608,tareaTDv3,2020.2.5,Win32,60,,,left,0,0,25,25,29,1,10000,0,151000,151,4.9685
,,,,,,,,,,,,,,,,,,,,,,,002,600,2022-06-02_19h00.37.608,tareaTDv3,2020.2.5,Win32,60,,,left,0,0,26,26,20,1,10000,0,20000,90,7.6697
,,,,,,,,,,,,,,,,,,,,,,,002,600,2022-06-02_19h00.37.608,tareaTDv3,2020.2.5,Win32,60,,,right,1,0,27,27,43,1,5000,0,106000,29,4.607
,,,,,,,,,,,,,,,,,,,,,,,002,600,2022-06-02_19h00.37.608,tareaTDv3,2020.2.5,Win32,60,,,right,1,0,28,28,54,1,5000,0,150000,90,7.535
,,,,,,,,,,,,,,,,,,,,,,,002,600,2022-06-02_19h00.37.608,tareaTDv3,2020.2.5,Win32,60,,,right,1,0,29,29,1,1,10000,0,39000,6,2.4845
,,,,,,,,,,,,,,,,,,,,,,,002,600,2022-06-02_19h00.37.608,tareaTDv3,2020.2.5,Win32,60,,,right,1,0,30,30,63,1,25000,0,125000,4,4.0836
,,,,,,,,,,,,,,,,,,,,,,,002,600,2022-06-02_19h00.37.608,tareaTDv3,2020.2.5,Win32,60,,,left,1,0,31,31,9,1,10000,0,151000,11,2.5352
,,,,,,,,,,,,,,,,,,,,,,,002,600,2022-06-02_19h00.37.608,tareaTDv3,2020.2.5,Win32,60,,,left,0,0,32,32,57,1,5000,0,55000,151,3.1543
,,,,,,,,,,,,,,,,,,,,,,,002,600,2022-06-02_19h00.37.608,tareaTDv3,2020.2.5,Win32,60,,,right,0,0,33,33,15,1,10000,0,20000,59,4.2931
,,,,,,,,,,,,,,,,,,,,,,,002,600,2022-06-02_19h00.37.608,tareaTDv3,2020.2.5,Win32,60,,,left,0,0,34,34,86,1,25000,0,55000,151,2.2564
,,,,,,,,,,,,,,,,,,,,,,,002,600,2022-06-02_19h00.37.608,tareaTDv3,2020.2.5,Win32,60,,,right,1,0,35,35,12,1,10000,0,60000,29,3.9507
,,,,,,,,,,,,,,,,,,,,,,,002,600,2022-06-02_19h00.37.608,tareaTDv3,2020.2.5,Win32,60,,,left,1,0,36,36,38,1,5000,0,104000,10,2.6897
,,,,,,,,,,,,,,,,,,,,,,,002,600,2022-06-02_19h00.37.608,tareaTDv3,2020.2.5,Win32,60,,,right,0,0,37,37,26,1,10000,0,39000,150,2.6026
,,,,,,,,,,,,,,,,,,,,,,,002,600,2022-06-02_19h00.37.608,tareaTDv3,2020.2.5,Win32,60,,,right,1,0,38,38,75,1,25000,0,35000,60,5.451
,,,,,,,,,,,,,,,,,,,,,,,002,600,2022-06-02_19h00.37.608,tareaTDv3,2020.2.5,Win32,60,,,left,1,0,39,39,2,1,10000,0,61000,4,4.1339
,,,,,,,,,,,,,,,,,,,,,,,002,600,2022-06-02_19h00.37.608,tareaTDv3,2020.2.5,Win32,60,,,left,1,0,40,40,14,1,10000,0,150000,30,2.3684
,,,,,,,,,,,,,,,,,,,,,,,002,600,2022-06-02_19h00.37.608,tareaTDv3,2020.2.5,Win32,60,,,right,1,0,41,41,79,1,25000,0,150000,61,7.3514
,,,,,,,,,,,,,,,,,,,,,,,002,600,2022-06-02_19h00.37.608,tareaTDv3,2020.2.5,Win32,60,,,right,0,0,42,42,0,1,10000,0,20000,5,4.885
,,,,,,,,,,,,,,,,,,,,,,,002,600,2022-06-02_19h00.37.608,tareaTDv3,2020.2.5,Win32,60,,,left,1,0,43,43,31,1,5000,0,35000,6,4.5845
,,,,,,,,,,,,,,,,,,,,,,,002,600,2022-06-02_19h00.37.608,tareaTDv3,2020.2.5,Win32,60,,,right,1,0,44,44,66,1,25000,0,55000,11,5.8377
,,,,,,,,,,,,,,,,,,,,,,,002,600,2022-06-02_19h00.37.608,tareaTDv3,2020.2.5,Win32,60,,,right,0,0,45,45,65,1,25000,0,35000,11,2.807
,,,,,,,,,,,,,,,,,,,,,,,002,600,2022-06-02_19h00.37.608,tareaTDv3,2020.2.5,Win32,60,,,left,0,0,46,46,28,1,10000,0,109000,149,3.2515
,,,,,,,,,,,,,,,,,,,,,,,002,600,2022-06-02_19h00.37.608,tareaTDv3,2020.2.5,Win32,60,,,right,0,0,47,47,80,1,25000,0,35000,90,4.4096
,,,,,,,,,,,,,,,,,,,,,,,002,600,2022-06-02_19h00.37.608,tareaTDv3,2020.2.5,Win32,60,,,left,0,0,48,48,62,1,25000,0,75000,5,3.4849
,,,,,,,,,,,,,,,,,,,,,,,002,600,2022-06-02_19h00.37.608,tareaTDv3,2020.2.5,Win32,60,,,right,1,0,49,49,4,1,10000,0,150000,5,2.3706
,,,,,,,,,,,,,,,,,,,,,,,002,600,2022-06-02_19h00.37.608,tareaTDv3,2020.2.5,Win32,60,,,right,0,0,50,50,22,1,10000,0,61000,89,2.717
,,,,,,,,,,,,,,,,,,,,,,,002,600,2022-06-02_19h00.37.608,tareaTDv3,2020.2.5,Win32,60,,,left,0,0,51,51,83,1,25000,0,125000,89,4.5188
,,,,,,,,,,,,,,,,,,,,,,,002,600,2022-06-02_19h00.37.608,tareaTDv3,2020.2.5,Win32,60,,,right,0,0,52,52,55,1,5000,0,14000,149,3.6347
,,,,,,,,,,,,,,,,,,,,,,,002,600,2022-06-02_19h00.37.608,tareaTDv3,2020.2.5,Win32,60,,,left,0,0,53,53,77,1,25000,0,75000,59,6.4345
,,,,,,,,,,,,,,,,,,,,,,,002,600,2022-06-02_19h00.37.608,tareaTDv3,2020.2.5,Win32,60,,,right,1,0,54,54,24,1,10000,0,149000,89,5.8839
,,,,,,,,,,,,,,,,,,,,,,,002,600,2022-06-02_19h00.37.608,tareaTDv3,2020.2.5,Win32,60,,,left,0,0,55,55,5,1,10000,0,19000,11,3.1262
,,,,,,,,,,,,,,,,,,,,,,,002,600,2022-06-02_19h00.37.608,tareaTDv3,2020.2.5,Win32,60,,,left,0,0,56,56,70,1,25000,0,35000,30,7.4334
,,,,,,,,,,,,,,,,,,,,,,,002,600,2022-06-02_19h00.37.608,tareaTDv3,2020.2.5,Win32,60,,,left,1,0,57,57,37,1,5000,0,56000,9,3.424
,,,,,,,,,,,,,,,,,,,,,,,002,600,2022-06-02_19h00.37.608,tareaTDv3,2020.2.5,Win32,60,,,left,1,0,58,58,49,1,5000,0,149000,59,3.8182
,,,,,,,,,,,,,,,,,,,,,,,002,600,2022-06-02_19h00.37.608,tareaTDv3,2020.2.5,Win32,60,,,left,0,0,59,59,46,1,5000,0,36000,61,2.0182
,,,,,,,,,,,,,,,,,,,,,,,002,600,2022-06-02_19h00.37.608,tareaTDv3,2020.2.5,Win32,60,,,right,0,0,60,60,59,1,5000,0,151000,150,4.3078
,,,,,,,,,,,,,,,,,,,,,,,002,600,2022-06-02_19h00.37.608,tareaTDv3,2020.2.5,Win32,60,,,right,0,0,61,61,51,1,5000,0,35000,89,4.309
,,,,,,,,,,,,,,,,,,,,,,,002,600,2022-06-02_19h00.37.608,tareaTDv3,2020.2.5,Win32,60,,,left,1,0,62,62,73,1,25000,0,125000,31,4.0502
,,,,,,,,,,,,,,,,,,,,,,,002,600,2022-06-02_19h00.37.608,tareaTDv3,2020.2.5,Win32,60,,,right,1,0,63,63,60,1,25000,0,35000,5,4.0352
,,,,,,,,,,,,,,,,,,,,,,,002,600,2022-06-02_19h00.37.608,tareaTDv3,2020.2.5,Win32,60,,,left,0,0,64,64,56,1,5000,0,35000,150,4.369
,,,,,,,,,,,,,,,,,,,,,,,002,600,2022-06-02_19h00.37.608,tareaTDv3,2020.2.5,Win32,60,,,left,1,0,65,65,39,1,5000,0,149000,10,1.8758
,,,,,,,,,,,,,,,,,,,,,,,002,600,2022-06-02_19h00.37.608,tareaTDv3,2020.2.5,Win32,60,,,left,1,0,66,66,17,1,10000,0,60000,60,3.0101
,,,,,,,,,,,,,,,,,,,,,,,002,600,2022-06-02_19h00.37.608,tareaTDv3,2020.2.5,Win32,60,,,left,1,0,67,67,34,1,5000,0,151000,4,1.6691
,,,,,,,,,,,,,,,,,,,,,,,002,600,2022-06-02_19h00.37.608,tareaTDv3,2020.2.5,Win32,60,,,left,0,0,68,68,50,1,5000,0,15000,91,3.9853
,,,,,,,,,,,,,,,,,,,,,,,002,600,2022-06-02_19h00.37.608,tareaTDv3,2020.2.5,Win32,60,,,right,0,0,69,69,45,1,5000,0,15000,61,3.2242
,,,,,,,,,,,,,,,,,,,,,,,002,600,2022-06-02_19h00.37.608,tareaTDv3,2020.2.5,Win32,60,,,right,1,0,70,70,67,1,25000,0,75000,10,3.7396
,,,,,,,,,,,,,,,,,,,,,,,002,600,2022-06-02_19h00.37.608,tareaTDv3,2020.2.5,Win32,60,,,right,1,0,71,71,8,1,10000,0,111000,10,2.6499
,,,,,,,,,,,,,,,,,,,,,,,002,600,2022-06-02_19h00.37.608,tareaTDv3,2020.2.5,Win32,60,,,right,0,0,72,72,47,1,5000,0,56000,60,6.6838
,,,,,,,,,,,,,,,,,,,,,,,002,600,2022-06-02_19h00.37.608,tareaTDv3,2020.2.5,Win32,60,,,left,0,0,73,73,27,1,10000,0,61000,150,3.7725
,,,,,,,,,,,,,,,,,,,,,,,002,600,2022-06-02_19h00.37.608,tareaTDv3,2020.2.5,Win32,60,,,right,0,0,74,74,82,1,25000,0,75000,90,2.1917
,,,,,,,,,,,,,,,,,,,,,,,002,600,2022-06-02_19h00.37.608,tareaTDv3,2020.2.5,Win32,60,,,right,1,0,75,75,64,1,25000,0,150000,4,2.7169
,,,,,,,,,,,,,,,,,,,,,,,002,600,2022-06-02_19h00.37.608,tareaTDv3,2020.2.5,Win32,60,,,left,0,0,76,76,85,1,25000,0,35000,150,2.0169
,,,,,,,,,,,,,,,,,,,,,,,002,600,2022-06-02_19h00.37.608,tareaTDv3,2020.2.5,Win32,60,,,right,0,0,77,77,41,1,5000,0,35000,31,10.9842
,,,,,,,,,,,,,,,,,,,,,,,002,600,2022-06-02_19h00.37.608,tareaTDv3,2020.2.5,Win32,60,,,left,0,0,78,78,21,1,10000,0,40000,91,3.5685
,,,,,,,,,,,,,,,,,,,,,,,002,600,2022-06-02_19h00.37.608,tareaTDv3,2020.2.5,Win32,60,,,right,1,0,79,79,3,1,10000,0,109000,5,2.2182
,,,,,,,,,,,,,,,,,,,,,,,002,600,2022-06-02_19h00.37.608,tareaTDv3,2020.2.5,Win32,60,,,left,0,0,80,80,36,1,5000,0,36000,9,5.218
,,,,,,,,,,,,,,,,,,,,,,,002,600,2022-06-02_19h00.37.608,tareaTDv3,2020.2.5,Win32,60,,,left,0,0,81,81,89,1,25000,0,150000,150,5.7583
,,,,,,,,,,,,,,,,,,,,,,,002,600,2022-06-02_19h00.37.608,tareaTDv3,2020.2.5,Win32,60,,,left,0,0,82,82,81,1,25000,0,55000,90,4.4187
,,,,,,,,,,,,,,,,,,,,,,,002,600,2022-06-02_19h00.37.608,tareaTDv3,2020.2.5,Win32,60,,,left,1,0,83,83,44,1,5000,0,150000,30,3.7389
,,,,,,,,,,,,,,,,,,,,,,,002,600,2022-06-02_19h00.37.608,tareaTDv3,2020.2.5,Win32,60,,,right,1,0,84,84,13,1,10000,0,111000,30,2.0669
,,,,,,,,,,,,,,,,,,,,,,,002,600,2022-06-02_19h00.37.608,tareaTDv3,2020.2.5,Win32,60,,,right,0,0,85,85,40,1,5000,0,14000,31,10.9165
,,,,,,,,,,,,,,,,,,,,,,,002,600,2022-06-02_19h00.37.608,tareaTDv3,2020.2.5,Win32,60,,,left,1,0,86,86,68,1,25000,0,125000,9,5.3025
,,,,,,,,,,,,,,,,,,,,,,,002,600,2022-06-02_19h00.37.608,tareaTDv3,2020.2.5,Win32,60,,,left,0,0,87,87,25,1,10000,0,10000,150,3.7685
,,,,,,,,,,,,,,,,,,,,,,,002,600,2022-06-02_19h00.37.608,tareaTDv3,2020.2.5,Win32,60,,,right,0,0,88,88,71,1,25000,0,55000,30,7.2346
,,,,,,,,,,,,,,,,,,,,,,,002,600,2022-06-02_19h00.37.608,tareaTDv3,2020.2.5,Win32,60,,,right,1,0,89,89,23,1,10000,0,110000,90,4.1709
